Session ID,User Number,Trial,Month,Chart Type,Question Type,User Answer,Correct School,Correct Absences,User Absences,Response Time,Correct,Generated Data
20241111_154147,1,1,March,scatter,lowest,10,School [10],25,25,8.0,Correct,"[[9, 147, 117, 189, 170, 3, 37, 0, 51, 21, 74, 90], [48, 49, 149, 232, 197, 116, 14, 0, 41, 149, 236, 100], [103, 130, 163, 17, 36, 6, 116, 0, 213, 207, 192, 47], [178, 218, 181, 136, 198, 195, 36, 0, 29, 215, 11, 66], [198, 155, 107, 143, 134, 6, 97, 0, 137, 76, 220, 99], [222, 32, 127, 188, 19, 33, 109, 0, 166, 46, 229, 31], [200, 117, 93, 189, 3, 30, 24, 0, 5, 88, 128, 110], [183, 124, 178, 57, 58, 210, 104, 0, 116, 175, 168, 61], [170, 200, 31, 100, 227, 3, 108, 0, 38, 61, 29, 61], [170, 158, 25, 162, 157, 117, 39, 0, 176, 54, 104, 110]]"
20241111_154147,1,2,October,scatter,lowest,2,School [2],9,9,10.34,Correct,"[[109, 178, 38, 24, 199, 77, 102, 0, 194, 211, 183, 48], [179, 166, 78, 218, 59, 228, 113, 0, 206, 9, 52, 65], [31, 124, 169, 54, 178, 18, 31, 0, 162, 47, 43, 19], [148, 82, 151, 225, 225, 218, 65, 0, 133, 208, 13, 30], [160, 107, 183, 210, 113, 63, 86, 0, 113, 22, 24, 98], [158, 160, 39, 129, 180, 131, 32, 0, 31, 14, 89, 33], [17, 178, 82, 79, 162, 14, 56, 0, 193, 184, 129, 45], [53, 214, 163, 72, 177, 137, 52, 0, 93, 73, 124, 31], [87, 92, 113, 208, 148, 225, 105, 0, 27, 126, 69, 11], [22, 20, 224, 56, 137, 50, 22, 0, 92, 116, 142, 11]]"
20241111_154147,1,3,January,scatter,lowest,1,School [1],9,9,9.48,Correct,"[[9, 178, 106, 103, 171, 127, 94, 0, 70, 101, 70, 88], [180, 105, 66, 228, 38, 196, 83, 0, 179, 149, 181, 45], [53, 93, 147, 137, 6, 99, 113, 0, 49, 196, 59, 36], [178, 171, 30, 234, 131, 60, 85, 0, 112, 235, 96, 0], [90, 69, 205, 132, 208, 80, 101, 0, 119, 88, 112, 20], [151, 126, 28, 49, 230, 165, 82, 0, 121, 225, 87, 105], [182, 144, 120, 190, 193, 234, 54, 0, 169, 164, 89, 39], [59, 233, 32, 228, 55, 143, 53, 0, 231, 52, 23, 34], [190, 39, 66, 178, 115, 205, 57, 0, 28, 115, 51, 117], [47, 20, 216, 107, 95, 75, 92, 0, 212, 208, 190, 41]]"
20241111_154147,1,4,February,scatter,highest,3,School [3],233,233,6.85,Correct,"[[14, 135, 96, 90, 135, 13, 77, 0, 106, 85, 179, 106], [78, 93, 62, 82, 73, 159, 71, 0, 38, 105, 146, 27], [97, 233, 81, 111, 117, 179, 42, 0, 164, 20, 75, 58], [14, 46, 14, 37, 160, 41, 92, 0, 144, 158, 135, 10], [124, 152, 103, 106, 76, 202, 24, 0, 8, 168, 96, 8], [209, 161, 78, 209, 22, 88, 33, 0, 30, 211, 38, 117], [111, 46, 155, 18, 236, 230, 2, 0, 62, 175, 118, 35], [222, 217, 231, 147, 167, 174, 35, 0, 26, 201, 45, 62], [135, 192, 202, 224, 152, 165, 104, 0, 124, 98, 23, 2], [12, 104, 234, 214, 29, 5, 43, 0, 105, 14, 228, 48]]"
20241111_154147,1,5,November,scatter,highest,6,School [6],235,235,6.61,Correct,"[[28, 82, 185, 205, 186, 169, 50, 0, 82, 138, 13, 34], [0, 181, 234, 49, 61, 104, 97, 0, 22, 114, 148, 8], [144, 52, 20, 191, 161, 169, 37, 0, 123, 107, 71, 11], [190, 194, 88, 204, 114, 31, 88, 0, 79, 183, 151, 111], [209, 104, 29, 0, 107, 213, 36, 0, 142, 214, 222, 116], [139, 7, 203, 119, 210, 105, 54, 0, 97, 235, 235, 90], [47, 83, 32, 51, 229, 169, 91, 0, 197, 114, 138, 19], [45, 45, 80, 171, 208, 122, 12, 0, 142, 120, 86, 85], [134, 58, 178, 180, 186, 159, 12, 0, 187, 64, 147, 36], [190, 42, 179, 72, 65, 47, 27, 0, 65, 97, 167, 26]]"
20241111_154147,1,6,January,scatter,highest,6,School [6],188,188,5.94,Correct,"[[131, 168, 54, 45, 77, 120, 117, 0, 181, 64, 207, 65], [58, 49, 49, 130, 6, 60, 108, 0, 45, 0, 89, 91], [65, 207, 190, 6, 216, 35, 19, 0, 188, 93, 171, 16], [37, 67, 171, 203, 111, 52, 27, 0, 71, 22, 61, 28], [102, 4, 187, 5, 212, 54, 78, 0, 13, 0, 234, 36], [188, 107, 1, 35, 53, 179, 72, 0, 170, 123, 172, 105], [104, 129, 4, 117, 55, 103, 28, 0, 8, 208, 29, 112], [78, 153, 63, 110, 160, 67, 39, 0, 149, 199, 116, 107], [151, 188, 140, 6, 199, 211, 84, 0, 103, 208, 223, 69], [124, 126, 103, 115, 223, 126, 103, 0, 76, 142, 55, 38]]"
20241111_154147,1,7,June,scatter,lowest,6,School [6],12,12,4.77,Correct,"[[147, 35, 65, 212, 213, 88, 116, 0, 149, 197, 180, 96], [71, 147, 167, 29, 89, 137, 49, 0, 88, 27, 65, 7], [47, 141, 136, 4, 208, 117, 73, 0, 120, 109, 219, 96], [52, 128, 105, 49, 228, 223, 24, 0, 88, 194, 193, 2], [97, 86, 30, 178, 205, 112, 66, 0, 77, 41, 180, 18], [201, 96, 118, 1, 162, 12, 20, 0, 20, 215, 205, 112], [155, 158, 155, 64, 51, 176, 55, 0, 222, 195, 38, 106], [190, 223, 174, 53, 157, 128, 74, 0, 204, 41, 32, 113], [99, 30, 161, 201, 15, 157, 103, 0, 203, 49, 35, 26], [224, 94, 17, 57, 189, 79, 102, 0, 170, 134, 154, 54]]"
20241111_154147,1,8,May,scatter,highest,10,School [10],220,220,6.2,Correct,"[[215, 28, 214, 116, 149, 136, 22, 0, 191, 74, 143, 19], [128, 155, 195, 151, 135, 72, 20, 0, 97, 179, 155, 116], [226, 7, 225, 155, 172, 93, 41, 0, 37, 137, 71, 85], [30, 82, 95, 6, 177, 196, 21, 0, 131, 161, 161, 82], [86, 142, 210, 159, 160, 55, 111, 0, 87, 196, 184, 49], [113, 219, 54, 110, 41, 35, 81, 0, 42, 13, 129, 82], [190, 167, 85, 26, 169, 79, 91, 0, 216, 146, 209, 90], [73, 61, 138, 179, 49, 156, 80, 0, 70, 97, 203, 118], [203, 37, 132, 156, 92, 151, 11, 0, 123, 68, 100, 101], [46, 198, 196, 126, 220, 188, 14, 0, 205, 175, 199, 8]]"
20241111_154147,1,9,January,scatter,lowest,7,School [7],29,29,7.85,Correct,"[[47, 184, 233, 143, 180, 224, 43, 0, 196, 148, 117, 75], [233, 30, 198, 156, 148, 0, 11, 0, 180, 198, 199, 94], [179, 68, 137, 11, 17, 199, 10, 0, 39, 157, 110, 75], [158, 25, 67, 120, 57, 201, 10, 0, 117, 113, 152, 48], [117, 59, 149, 40, 173, 61, 104, 0, 160, 43, 214, 49], [155, 153, 34, 192, 134, 16, 19, 0, 115, 192, 87, 57], [29, 68, 16, 35, 100, 26, 23, 0, 51, 213, 114, 9], [156, 152, 110, 200, 215, 82, 43, 0, 58, 25, 9, 34], [174, 167, 156, 205, 86, 71, 89, 0, 20, 117, 71, 29], [131, 202, 87, 114, 86, 202, 44, 0, 4, 38, 215, 49]]"
20241111_154147,1,10,August,scatter,lowest,1,"School [1, 2, 3, 4, 5, 6, 7, 8, 9, 10]",0,0,10.12,Correct,"[[153, 100, 149, 84, 114, 44, 16, 0, 73, 53, 88, 91], [147, 134, 5, 100, 224, 11, 72, 0, 227, 167, 177, 14], [131, 173, 67, 56, 155, 8, 76, 0, 196, 87, 110, 56], [204, 120, 24, 122, 133, 45, 82, 0, 146, 120, 62, 82], [141, 218, 115, 62, 79, 139, 41, 0, 85, 204, 163, 109], [105, 113, 118, 174, 230, 225, 24, 0, 226, 5, 19, 57], [227, 163, 4, 71, 68, 216, 22, 0, 127, 23, 87, 113], [90, 5, 233, 205, 109, 170, 90, 0, 90, 20, 51, 98], [106, 180, 59, 144, 191, 216, 94, 0, 44, 198, 64, 74], [104, 231, 6, 122, 108, 83, 40, 0, 177, 45, 168, 19]]"
20241111_154147,1,1,April,heatmap,lowest,5,School [5],12,12,11.33,Correct,"[[191, 126, 58, 89, 224, 174, 117, 0, 222, 12, 186, 111], [221, 164, 46, 28, 162, 188, 95, 0, 39, 154, 62, 26], [52, 122, 156, 75, 4, 13, 6, 0, 124, 225, 100, 97], [74, 68, 183, 102, 19, 39, 25, 0, 95, 54, 1, 69], [49, 62, 176, 12, 215, 87, 54, 0, 123, 107, 172, 12], [20, 213, 39, 62, 181, 138, 73, 0, 142, 106, 148, 75], [57, 25, 191, 213, 132, 91, 99, 0, 218, 61, 195, 3], [17, 137, 191, 234, 150, 37, 24, 0, 202, 113, 134, 72], [133, 148, 118, 102, 41, 115, 100, 0, 64, 28, 154, 59], [42, 134, 101, 38, 125, 203, 81, 0, 3, 104, 193, 46]]"
20241111_154147,1,2,July,heatmap,lowest,3,School [3],15,15,12.69,Correct,"[[99, 154, 102, 118, 130, 210, 102, 0, 145, 213, 79, 30], [68, 187, 2, 140, 144, 22, 115, 0, 163, 181, 56, 96], [189, 183, 215, 147, 61, 39, 15, 0, 30, 214, 213, 30], [231, 49, 204, 70, 10, 66, 61, 0, 105, 227, 41, 51], [207, 166, 8, 224, 207, 73, 108, 0, 202, 41, 218, 87], [204, 16, 11, 20, 34, 217, 56, 0, 195, 144, 12, 83], [235, 76, 158, 35, 177, 86, 48, 0, 207, 176, 220, 58], [57, 231, 107, 217, 87, 115, 102, 0, 34, 11, 196, 95], [43, 126, 42, 83, 134, 131, 33, 0, 48, 80, 197, 94], [23, 110, 97, 209, 177, 33, 101, 0, 174, 178, 84, 96]]"
20241111_154147,1,3,January,heatmap,lowest,5,School [5],5,5,8.71,Correct,"[[161, 108, 78, 186, 121, 161, 108, 0, 83, 208, 143, 67], [99, 73, 103, 150, 192, 183, 63, 0, 234, 12, 104, 76], [120, 229, 156, 36, 177, 136, 11, 0, 4, 170, 11, 38], [132, 138, 115, 9, 159, 174, 33, 0, 189, 142, 175, 84], [5, 186, 137, 24, 141, 47, 89, 0, 128, 43, 156, 37], [126, 7, 203, 188, 23, 121, 116, 0, 96, 207, 72, 75], [154, 171, 120, 56, 11, 31, 13, 0, 53, 93, 88, 36], [46, 31, 40, 199, 13, 100, 24, 0, 119, 136, 227, 106], [100, 224, 41, 185, 177, 59, 85, 0, 55, 103, 58, 115], [60, 187, 92, 209, 189, 166, 22, 0, 196, 174, 81, 14]]"
20241111_154147,1,4,September,heatmap,highest,2,School [2],233,233,12.15,Correct,"[[212, 222, 161, 226, 63, 166, 15, 0, 206, 130, 33, 5], [117, 108, 98, 178, 185, 159, 21, 0, 233, 143, 82, 104], [4, 119, 38, 175, 2, 91, 35, 0, 49, 226, 114, 37], [125, 5, 161, 228, 138, 151, 73, 0, 86, 131, 184, 57], [222, 177, 201, 162, 126, 59, 23, 0, 54, 91, 63, 92], [133, 216, 159, 58, 16, 175, 101, 0, 33, 83, 216, 55], [193, 114, 99, 139, 11, 179, 50, 0, 179, 108, 158, 100], [65, 154, 39, 106, 195, 163, 42, 0, 43, 149, 50, 11], [91, 179, 24, 194, 46, 208, 26, 0, 39, 123, 158, 89], [54, 207, 31, 175, 116, 179, 39, 0, 105, 233, 155, 77]]"
20241111_154147,1,5,December,heatmap,lowest,1,School [5],8,14,6.99,Wrong,"[[215, 124, 67, 86, 126, 34, 75, 0, 92, 82, 16, 14], [159, 192, 175, 184, 116, 165, 101, 0, 232, 88, 182, 15], [170, 54, 115, 116, 111, 232, 72, 0, 156, 235, 37, 60], [5, 56, 43, 190, 215, 12, 48, 0, 233, 72, 8, 109], [21, 98, 82, 137, 164, 49, 77, 0, 139, 143, 162, 8], [82, 184, 93, 77, 47, 224, 57, 0, 63, 173, 41, 101], [200, 60, 13, 212, 228, 85, 14, 0, 204, 72, 146, 44], [84, 210, 166, 150, 37, 206, 87, 0, 57, 213, 146, 109], [56, 22, 162, 229, 32, 158, 75, 0, 181, 154, 221, 41], [181, 14, 67, 89, 69, 182, 108, 0, 58, 80, 65, 70]]"
20241111_154147,1,6,September,heatmap,highest,2,School [2],227,227,4.51,Correct,"[[50, 5, 158, 203, 50, 203, 97, 0, 139, 101, 174, 31], [205, 214, 23, 163, 92, 45, 62, 0, 227, 191, 104, 11], [65, 66, 84, 19, 21, 24, 46, 0, 155, 85, 141, 103], [71, 26, 56, 76, 218, 114, 8, 0, 37, 27, 172, 91], [26, 212, 93, 132, 188, 54, 11, 0, 87, 136, 99, 62], [112, 76, 175, 226, 223, 193, 104, 0, 121, 45, 227, 44], [147, 181, 8, 68, 164, 4, 61, 0, 37, 209, 131, 52], [47, 62, 15, 171, 62, 176, 75, 0, 36, 135, 34, 113], [109, 235, 110, 137, 193, 16, 3, 0, 79, 51, 187, 56], [222, 232, 132, 51, 115, 90, 13, 0, 121, 51, 18, 48]]"
20241111_154147,1,7,April,heatmap,highest,10,School [10],198,198,4.98,Correct,"[[4, 151, 230, 104, 156, 166, 7, 0, 126, 93, 50, 64], [2, 12, 114, 193, 78, 105, 75, 0, 39, 119, 75, 14], [226, 121, 83, 183, 176, 16, 19, 0, 73, 139, 153, 54], [150, 120, 75, 179, 97, 104, 8, 0, 198, 41, 173, 112], [28, 136, 202, 45, 88, 232, 49, 0, 67, 96, 214, 65], [173, 193, 136, 185, 56, 153, 40, 0, 64, 123, 156, 62], [125, 14, 225, 179, 116, 143, 39, 0, 47, 216, 223, 34], [17, 26, 166, 77, 107, 225, 63, 0, 63, 144, 229, 92], [119, 6, 99, 76, 132, 113, 8, 0, 145, 65, 164, 114], [94, 97, 149, 198, 93, 94, 15, 0, 90, 22, 89, 85]]"
20241111_154147,1,8,July,heatmap,lowest,1,School [1],7,7,5.17,Correct,"[[142, 229, 204, 15, 12, 119, 7, 0, 218, 201, 59, 49], [86, 124, 95, 21, 72, 107, 45, 0, 30, 197, 47, 95], [37, 178, 179, 122, 104, 100, 99, 0, 53, 29, 104, 16], [111, 141, 195, 10, 227, 150, 41, 0, 12, 208, 186, 44], [185, 167, 177, 161, 63, 7, 55, 0, 24, 195, 102, 82], [201, 156, 146, 94, 23, 224, 56, 0, 89, 105, 100, 13], [179, 37, 166, 130, 195, 143, 61, 0, 127, 160, 156, 62], [56, 33, 178, 84, 118, 179, 71, 0, 143, 211, 153, 87], [197, 75, 19, 226, 180, 234, 46, 0, 125, 54, 120, 16], [157, 66, 77, 217, 58, 85, 54, 0, 103, 146, 206, 30]]"
20241111_154147,1,9,August,heatmap,highest,1,"School [1, 2, 3, 4, 5, 6, 7, 8, 9, 10]",0,0,11.9,Correct,"[[151, 197, 37, 202, 183, 41, 38, 0, 113, 107, 186, 53], [149, 31, 90, 120, 27, 42, 83, 0, 100, 9, 132, 57], [147, 196, 155, 75, 110, 124, 12, 0, 69, 22, 94, 100], [216, 147, 65, 31, 134, 140, 57, 0, 157, 85, 204, 10], [179, 41, 165, 96, 62, 98, 68, 0, 103, 135, 18, 103], [12, 176, 35, 22, 53, 134, 103, 0, 86, 144, 129, 36], [100, 199, 113, 207, 169, 193, 39, 0, 156, 184, 124, 0], [88, 220, 26, 216, 19, 9, 92, 0, 221, 143, 223, 90], [16, 212, 197, 93, 228, 124, 0, 0, 2, 185, 28, 8], [122, 97, 200, 216, 145, 124, 29, 0, 220, 143, 61, 18]]"
20241111_154147,1,10,October,heatmap,highest,5,School [5],235,235,8.64,Correct,"[[217, 68, 71, 11, 102, 197, 17, 0, 68, 207, 98, 2], [83, 162, 192, 221, 198, 34, 100, 0, 38, 56, 132, 3], [108, 56, 74, 131, 202, 45, 54, 0, 131, 151, 11, 31], [177, 118, 195, 147, 113, 200, 76, 0, 48, 21, 90, 16], [184, 206, 84, 103, 50, 191, 2, 0, 97, 235, 40, 40], [106, 121, 236, 181, 185, 160, 3, 0, 191, 37, 106, 57], [137, 199, 100, 134, 126, 31, 73, 0, 52, 169, 152, 5], [8, 174, 178, 20, 119, 14, 80, 0, 216, 198, 227, 37], [126, 161, 48, 159, 92, 40, 60, 0, 39, 213, 144, 11], [150, 40, 27, 187, 191, 133, 117, 0, 127, 165, 141, 56]]"
20241111_170722,2,1,December,scatter,lowest,2,School [2],4,4,16.43,Correct,"[[47, 30, 166, 76, 205, 52, 56, 0, 59, 54, 135, 31], [32, 19, 162, 233, 52, 151, 10, 0, 212, 42, 24, 4], [176, 177, 114, 205, 200, 14, 49, 0, 141, 188, 173, 107], [25, 161, 162, 186, 233, 84, 18, 0, 192, 88, 156, 39], [201, 191, 210, 197, 50, 201, 109, 0, 227, 114, 166, 7], [227, 35, 185, 60, 32, 98, 80, 0, 214, 56, 75, 36], [196, 27, 54, 13, 94, 76, 1, 0, 133, 38, 176, 5], [133, 95, 227, 101, 3, 115, 89, 0, 172, 75, 23, 92], [212, 136, 10, 203, 22, 155, 89, 0, 106, 183, 101, 84], [204, 213, 213, 102, 163, 221, 50, 0, 38, 141, 147, 91]]"
20241111_170722,2,2,February,scatter,highest,1,School [1],214,214,14.78,Correct,"[[166, 214, 86, 147, 170, 1, 49, 0, 37, 97, 152, 104], [149, 115, 159, 197, 6, 53, 21, 0, 36, 97, 141, 110], [82, 62, 193, 125, 20, 193, 29, 0, 45, 19, 209, 47], [86, 1, 146, 51, 171, 78, 118, 0, 71, 191, 75, 14], [109, 21, 159, 47, 55, 8, 89, 0, 126, 2, 134, 62], [152, 6, 27, 234, 215, 203, 39, 0, 160, 22, 178, 32], [147, 59, 113, 12, 106, 143, 87, 0, 149, 131, 210, 20], [183, 170, 177, 29, 61, 116, 79, 0, 194, 9, 111, 36], [196, 148, 134, 66, 8, 234, 97, 0, 114, 46, 207, 18], [201, 42, 124, 114, 94, 178, 60, 0, 92, 21, 32, 99]]"
20241111_170722,2,3,April,scatter,lowest,3,"School [3, 6]",42,42,14.1,Correct,"[[180, 128, 186, 142, 220, 46, 83, 0, 236, 226, 18, 23], [117, 19, 120, 227, 34, 124, 74, 0, 186, 32, 154, 42], [147, 123, 185, 42, 116, 226, 89, 0, 72, 6, 45, 84], [165, 68, 145, 227, 101, 5, 4, 0, 172, 58, 22, 108], [140, 146, 172, 104, 181, 28, 79, 0, 39, 91, 201, 98], [10, 139, 216, 42, 28, 30, 93, 0, 145, 135, 198, 70], [5, 132, 159, 120, 37, 49, 52, 0, 221, 2, 75, 23], [40, 81, 111, 117, 112, 4, 75, 0, 109, 66, 223, 15], [173, 13, 32, 88, 48, 33, 118, 0, 140, 161, 90, 39], [59, 149, 181, 125, 142, 71, 58, 0, 124, 190, 58, 47]]"
20241111_170722,2,4,April,scatter,highest,5,School [5],220,220,9.55,Correct,"[[34, 50, 91, 145, 57, 37, 3, 0, 178, 197, 106, 104], [89, 172, 83, 36, 98, 54, 71, 0, 104, 117, 207, 46], [160, 199, 118, 179, 28, 28, 100, 0, 161, 169, 19, 78], [96, 152, 56, 29, 157, 14, 52, 0, 236, 106, 188, 77], [103, 14, 19, 220, 218, 229, 117, 0, 110, 207, 143, 67], [81, 133, 202, 214, 101, 30, 30, 0, 194, 181, 183, 4], [155, 184, 236, 111, 125, 56, 36, 0, 197, 65, 180, 114], [221, 148, 1, 142, 62, 69, 81, 0, 193, 4, 94, 113], [84, 114, 234, 129, 143, 18, 112, 0, 233, 210, 59, 30], [51, 42, 60, 19, 147, 107, 0, 0, 102, 170, 227, 14]]"
20241111_170722,2,5,August,scatter,highest,9,"School [1, 2, 3, 4, 5, 6, 7, 8, 9, 10]",0,0,16.92,Correct,"[[134, 149, 108, 192, 50, 229, 83, 0, 176, 73, 163, 34], [157, 20, 37, 199, 80, 70, 74, 0, 225, 22, 162, 3], [32, 96, 153, 195, 139, 216, 92, 0, 154, 110, 166, 58], [224, 74, 45, 218, 119, 138, 21, 0, 135, 104, 80, 49], [114, 11, 218, 81, 4, 45, 84, 0, 213, 77, 24, 11], [114, 102, 160, 178, 109, 37, 64, 0, 183, 22, 183, 93], [223, 29, 144, 53, 85, 184, 60, 0, 58, 92, 39, 37], [26, 19, 213, 82, 92, 75, 44, 0, 21, 234, 204, 68], [202, 12, 150, 156, 9, 182, 35, 0, 95, 175, 111, 3], [67, 176, 80, 116, 178, 210, 93, 0, 125, 87, 25, 115]]"
20241111_170722,2,6,June,scatter,lowest,9,School [9],12,12,15.29,Correct,"[[46, 16, 177, 18, 177, 84, 35, 0, 117, 233, 47, 0], [189, 119, 23, 52, 50, 85, 102, 0, 158, 123, 135, 51], [132, 92, 10, 109, 225, 232, 31, 0, 197, 179, 33, 54], [53, 168, 13, 197, 39, 71, 107, 0, 131, 94, 205, 70], [186, 123, 229, 199, 5, 212, 83, 0, 214, 145, 75, 64], [194, 167, 88, 130, 123, 99, 19, 0, 182, 193, 2, 24], [168, 227, 20, 126, 35, 22, 105, 0, 72, 59, 2, 89], [219, 7, 110, 205, 8, 22, 8, 0, 72, 163, 170, 118], [231, 199, 209, 112, 167, 12, 40, 0, 233, 207, 196, 33], [46, 201, 117, 49, 55, 120, 26, 0, 213, 229, 153, 86]]"
20241111_170722,2,7,June,scatter,highest,5,School [5],224,224,10.36,Correct,"[[15, 23, 132, 81, 47, 167, 113, 0, 101, 190, 115, 48], [153, 55, 210, 167, 89, 213, 71, 0, 198, 65, 126, 109], [98, 95, 64, 30, 111, 25, 0, 0, 82, 59, 59, 113], [87, 230, 169, 129, 97, 109, 18, 0, 95, 136, 181, 17], [197, 89, 199, 171, 162, 224, 37, 0, 31, 202, 204, 6], [91, 5, 221, 175, 102, 97, 65, 0, 206, 198, 104, 85], [65, 155, 120, 206, 158, 32, 78, 0, 128, 96, 180, 25], [139, 64, 156, 8, 174, 207, 71, 0, 130, 158, 189, 93], [158, 180, 47, 10, 144, 7, 65, 0, 153, 134, 198, 41], [65, 49, 14, 31, 215, 67, 79, 0, 93, 126, 138, 95]]"
20241111_170722,2,8,January,scatter,highest,8,School [8],220,220,9.0,Correct,"[[211, 163, 80, 19, 28, 4, 90, 0, 136, 234, 103, 73], [3, 77, 186, 233, 213, 101, 63, 0, 230, 38, 134, 37], [195, 97, 151, 85, 230, 151, 100, 0, 26, 131, 55, 24], [115, 115, 121, 87, 65, 217, 23, 0, 186, 166, 174, 66], [111, 157, 29, 196, 41, 228, 62, 0, 60, 59, 19, 4], [198, 202, 182, 38, 120, 114, 16, 0, 166, 14, 15, 46], [48, 191, 144, 163, 178, 202, 27, 0, 129, 85, 176, 21], [220, 27, 17, 235, 38, 58, 95, 0, 163, 51, 143, 28], [4, 164, 142, 2, 229, 121, 84, 0, 203, 153, 93, 56], [20, 93, 94, 131, 131, 108, 41, 0, 140, 18, 18, 81]]"
20241111_170722,2,9,August,scatter,highest,9,"School [1, 2, 3, 4, 5, 6, 7, 8, 9, 10]",0,0,9.17,Correct,"[[119, 25, 5, 218, 57, 218, 39, 0, 89, 122, 26, 46], [208, 227, 235, 99, 104, 70, 72, 0, 7, 154, 143, 68], [228, 103, 29, 186, 145, 97, 86, 0, 47, 174, 164, 104], [178, 5, 195, 147, 27, 136, 53, 0, 217, 218, 189, 5], [108, 19, 21, 32, 85, 216, 9, 0, 137, 0, 100, 49], [216, 216, 131, 142, 54, 180, 65, 0, 196, 90, 126, 113], [112, 30, 182, 3, 188, 58, 52, 0, 116, 40, 98, 77], [52, 182, 17, 20, 150, 145, 90, 0, 114, 189, 159, 95], [165, 144, 203, 46, 65, 198, 105, 0, 145, 130, 204, 54], [2, 138, 146, 48, 11, 155, 30, 0, 32, 146, 39, 64]]"
20241111_170722,2,10,April,scatter,highest,7,School [7],205,205,13.96,Correct,"[[167, 188, 186, 46, 32, 164, 98, 0, 50, 82, 200, 52], [201, 141, 106, 169, 63, 21, 10, 0, 236, 53, 120, 45], [7, 115, 203, 161, 25, 83, 19, 0, 226, 176, 31, 83], [171, 85, 122, 44, 109, 22, 38, 0, 94, 55, 183, 50], [11, 209, 210, 97, 191, 72, 91, 0, 170, 61, 24, 52], [218, 160, 100, 79, 100, 139, 59, 0, 159, 48, 119, 40], [120, 113, 88, 205, 191, 135, 95, 0, 67, 38, 166, 98], [138, 56, 219, 148, 141, 74, 82, 0, 177, 11, 37, 76], [58, 61, 133, 139, 169, 22, 57, 0, 171, 7, 169, 103], [70, 153, 93, 180, 183, 29, 15, 0, 192, 145, 194, 109]]"
20241111_170722,2,1,June,heatmap,highest,3,School [3],221,221,33.76,Correct,"[[114, 52, 35, 206, 53, 34, 24, 0, 9, 54, 37, 88], [149, 56, 139, 83, 50, 168, 86, 0, 81, 23, 144, 66], [2, 154, 109, 104, 42, 221, 101, 0, 143, 96, 144, 4], [17, 178, 107, 63, 226, 38, 84, 0, 146, 154, 230, 100], [72, 171, 164, 193, 63, 56, 32, 0, 27, 184, 136, 4], [203, 60, 166, 87, 48, 16, 8, 0, 116, 184, 218, 109], [141, 117, 35, 29, 132, 147, 29, 0, 15, 178, 183, 110], [55, 214, 44, 58, 142, 48, 8, 0, 100, 218, 184, 16], [72, 150, 39, 87, 69, 35, 25, 0, 32, 231, 67, 7], [220, 83, 190, 37, 202, 127, 85, 0, 138, 235, 128, 88]]"
20241111_170722,2,2,January,heatmap,lowest,1,School [1],17,17,5.01,Correct,"[[17, 129, 149, 161, 59, 28, 83, 0, 3, 57, 127, 67], [153, 75, 157, 225, 105, 118, 75, 0, 136, 193, 119, 19], [110, 18, 172, 45, 87, 96, 107, 0, 140, 38, 177, 65], [114, 157, 60, 201, 154, 73, 74, 0, 119, 192, 208, 49], [189, 67, 10, 189, 167, 6, 8, 0, 192, 134, 135, 90], [129, 115, 84, 11, 105, 78, 72, 0, 164, 132, 125, 15], [63, 191, 53, 210, 2, 84, 57, 0, 92, 72, 36, 63], [42, 120, 134, 104, 226, 63, 102, 0, 14, 109, 132, 71], [153, 105, 59, 162, 153, 120, 94, 0, 165, 55, 117, 76], [169, 46, 196, 192, 163, 87, 78, 0, 58, 39, 24, 106]]"
20241111_170722,2,3,July,heatmap,highest,5,School [5],106,106,14.65,Correct,"[[217, 119, 219, 42, 164, 42, 18, 0, 162, 46, 74, 53], [174, 207, 56, 2, 97, 65, 76, 0, 70, 116, 55, 67], [39, 201, 136, 223, 230, 158, 87, 0, 153, 187, 214, 92], [193, 108, 74, 199, 57, 219, 96, 0, 162, 44, 52, 88], [22, 19, 183, 92, 233, 230, 106, 0, 74, 28, 39, 29], [211, 34, 139, 194, 3, 213, 69, 0, 19, 186, 52, 54], [177, 233, 89, 100, 64, 18, 32, 0, 200, 189, 134, 20], [129, 169, 75, 162, 66, 31, 87, 0, 10, 182, 1, 62], [155, 123, 161, 216, 17, 210, 63, 0, 63, 208, 99, 75], [166, 218, 211, 118, 195, 164, 31, 0, 80, 30, 124, 56]]"
20241111_170722,2,4,September,heatmap,highest,10,School [10],211,211,8.21,Correct,"[[91, 52, 163, 3, 157, 8, 37, 0, 159, 220, 72, 28], [139, 174, 162, 149, 34, 150, 29, 0, 136, 92, 117, 43], [27, 236, 37, 69, 220, 17, 90, 0, 93, 37, 81, 3], [31, 121, 7, 226, 109, 140, 82, 0, 113, 236, 6, 91], [14, 181, 10, 172, 168, 181, 47, 0, 151, 64, 149, 80], [70, 31, 63, 32, 151, 55, 57, 0, 60, 51, 138, 92], [208, 218, 164, 153, 19, 47, 47, 0, 128, 227, 202, 98], [87, 175, 200, 17, 147, 45, 7, 0, 112, 60, 39, 95], [114, 25, 171, 106, 155, 86, 2, 0, 95, 21, 79, 89], [16, 18, 124, 128, 193, 85, 48, 0, 211, 156, 138, 56]]"
20241111_170722,2,5,November,heatmap,highest,4,School [4],222,222,21.32,Correct,"[[59, 220, 96, 157, 227, 131, 31, 0, 165, 209, 191, 89], [190, 135, 146, 236, 171, 11, 29, 0, 55, 119, 207, 114], [200, 110, 228, 114, 149, 195, 110, 0, 129, 12, 0, 91], [37, 167, 10, 107, 105, 52, 14, 0, 29, 143, 222, 1], [94, 44, 197, 159, 175, 38, 50, 0, 97, 155, 206, 5], [192, 10, 213, 122, 140, 75, 102, 0, 221, 125, 115, 44], [205, 228, 5, 17, 55, 219, 58, 0, 78, 114, 147, 118], [231, 56, 24, 20, 213, 132, 117, 0, 65, 8, 130, 103], [11, 12, 141, 13, 24, 39, 32, 0, 208, 40, 167, 50], [141, 123, 52, 187, 125, 17, 65, 0, 78, 100, 215, 107]]"
20241111_170722,2,6,December,heatmap,highest,3,School [3],105,105,10.74,Correct,"[[125, 68, 129, 213, 9, 2, 78, 0, 5, 220, 196, 38], [126, 95, 174, 72, 210, 126, 92, 0, 209, 70, 111, 13], [74, 55, 197, 208, 46, 103, 118, 0, 143, 41, 221, 105], [29, 210, 40, 17, 196, 142, 81, 0, 24, 144, 149, 62], [155, 122, 51, 151, 77, 94, 108, 0, 213, 164, 13, 51], [43, 138, 25, 124, 87, 224, 115, 0, 64, 175, 6, 6], [196, 196, 54, 94, 91, 233, 48, 0, 131, 211, 77, 25], [169, 10, 90, 228, 114, 9, 84, 0, 107, 93, 147, 50], [165, 94, 212, 52, 191, 20, 29, 0, 182, 207, 201, 50], [1, 186, 87, 66, 169, 194, 38, 0, 21, 154, 177, 42]]"
20241111_170722,2,7,September,heatmap,highest,3,School [3],199,199,13.35,Correct,"[[44, 55, 79, 103, 215, 131, 1, 0, 140, 169, 191, 104], [124, 146, 19, 86, 156, 212, 94, 0, 161, 5, 71, 85], [183, 32, 223, 152, 236, 170, 36, 0, 199, 88, 8, 103], [77, 205, 106, 42, 108, 32, 89, 0, 85, 13, 26, 104], [136, 137, 162, 18, 8, 132, 51, 0, 115, 17, 234, 19], [54, 224, 84, 7, 8, 17, 72, 0, 2, 180, 73, 26], [87, 57, 102, 226, 121, 27, 91, 0, 180, 197, 162, 4], [77, 106, 5, 98, 44, 129, 54, 0, 91, 188, 17, 79], [57, 13, 196, 175, 44, 102, 51, 0, 158, 41, 85, 70], [123, 72, 201, 150, 26, 132, 80, 0, 175, 200, 49, 2]]"
20241111_170722,2,8,January,heatmap,lowest,7,School [7],6,6,12.34,Correct,"[[134, 105, 122, 152, 97, 178, 81, 0, 150, 22, 162, 88], [174, 61, 50, 72, 75, 75, 53, 0, 157, 29, 139, 16], [120, 34, 112, 161, 23, 166, 0, 0, 88, 36, 13, 114], [166, 229, 194, 117, 177, 129, 67, 0, 203, 59, 191, 42], [228, 134, 178, 9, 220, 224, 34, 0, 107, 92, 170, 21], [156, 128, 142, 41, 201, 225, 115, 0, 11, 40, 162, 56], [6, 13, 128, 140, 235, 56, 114, 0, 82, 177, 116, 93], [224, 228, 177, 131, 103, 228, 31, 0, 1, 111, 168, 110], [104, 125, 226, 46, 144, 187, 75, 0, 134, 203, 8, 72], [190, 127, 169, 159, 80, 56, 89, 0, 71, 41, 147, 104]]"
20241111_170722,2,9,July,heatmap,lowest,10,School [10],25,25,13.63,Correct,"[[137, 48, 76, 233, 164, 21, 106, 0, 212, 210, 211, 63], [82, 231, 131, 95, 139, 224, 92, 0, 212, 67, 135, 65], [215, 207, 174, 215, 188, 196, 28, 0, 68, 112, 226, 114], [82, 16, 215, 205, 60, 34, 102, 0, 166, 229, 19, 76], [232, 199, 221, 27, 149, 109, 29, 0, 197, 69, 159, 117], [74, 226, 154, 229, 62, 225, 69, 0, 195, 215, 65, 25], [179, 120, 123, 227, 105, 173, 67, 0, 86, 141, 194, 107], [89, 144, 200, 51, 126, 146, 78, 0, 176, 58, 79, 50], [54, 71, 61, 109, 28, 90, 48, 0, 157, 178, 221, 67], [175, 70, 219, 102, 164, 104, 25, 0, 24, 217, 116, 96]]"
20241111_170722,2,10,September,heatmap,highest,2,School [2],201,201,10.92,Correct,"[[185, 23, 93, 236, 133, 145, 46, 0, 122, 228, 36, 84], [59, 18, 181, 165, 232, 119, 62, 0, 201, 179, 26, 48], [24, 123, 76, 140, 232, 168, 97, 0, 131, 75, 187, 43], [5, 17, 235, 165, 84, 93, 87, 0, 36, 65, 72, 55], [120, 41, 52, 235, 83, 160, 51, 0, 82, 46, 229, 27], [76, 236, 17, 160, 52, 25, 42, 0, 30, 224, 21, 41], [227, 80, 154, 146, 66, 182, 112, 0, 23, 221, 122, 102], [233, 233, 0, 193, 11, 172, 117, 0, 96, 231, 141, 110], [205, 175, 223, 110, 175, 64, 14, 0, 63, 94, 21, 94], [101, 236, 102, 110, 81, 61, 114, 0, 135, 36, 81, 113]]"
20241111_171604,3,1,April,scatter,highest,1,School [1],231,231,20.88,Correct,"[[234, 92, 141, 231, 186, 188, 112, 0, 143, 88, 155, 5], [183, 221, 173, 125, 12, 0, 90, 0, 165, 90, 102, 80], [168, 35, 172, 52, 41, 126, 40, 0, 96, 129, 97, 7], [209, 222, 229, 20, 25, 27, 26, 0, 213, 220, 181, 40], [223, 192, 157, 149, 204, 45, 35, 0, 207, 74, 131, 71], [151, 183, 65, 61, 126, 170, 70, 0, 169, 183, 96, 36], [132, 8, 172, 13, 155, 194, 42, 0, 56, 101, 182, 45], [149, 153, 162, 127, 23, 65, 57, 0, 210, 39, 206, 11], [139, 178, 6, 31, 160, 138, 54, 0, 126, 110, 59, 114], [231, 181, 125, 88, 113, 86, 33, 0, 18, 120, 117, 72]]"
20241111_171604,3,2,December,scatter,highest,1,School [1],105,105,8.47,Correct,"[[173, 191, 157, 78, 27, 202, 60, 0, 2, 58, 103, 105], [204, 16, 210, 164, 21, 6, 29, 0, 207, 176, 134, 11], [223, 27, 140, 11, 68, 2, 106, 0, 134, 36, 66, 10], [30, 6, 169, 227, 223, 95, 66, 0, 122, 20, 142, 44], [148, 10, 84, 10, 208, 15, 93, 0, 144, 165, 97, 8], [105, 49, 111, 195, 98, 228, 5, 0, 137, 142, 68, 16], [39, 153, 177, 105, 38, 5, 8, 0, 69, 227, 102, 68], [195, 36, 159, 45, 78, 223, 74, 0, 137, 80, 139, 94], [195, 77, 49, 201, 43, 24, 49, 0, 14, 8, 157, 39], [12, 38, 222, 154, 122, 236, 90, 0, 46, 30, 25, 22]]"
20241111_171604,3,3,November,scatter,lowest,6,School [6],33,33,9.94,Correct,"[[229, 83, 20, 19, 156, 3, 75, 0, 199, 89, 105, 118], [124, 208, 212, 190, 227, 235, 74, 0, 208, 115, 215, 6], [141, 4, 16, 59, 29, 133, 84, 0, 178, 224, 89, 96], [233, 82, 105, 94, 171, 7, 48, 0, 148, 159, 204, 53], [88, 163, 157, 196, 104, 129, 69, 0, 64, 216, 97, 0], [177, 189, 170, 77, 89, 121, 92, 0, 85, 206, 33, 48], [163, 119, 35, 225, 218, 101, 76, 0, 116, 222, 35, 18], [52, 155, 223, 71, 27, 226, 77, 0, 194, 236, 187, 74], [68, 7, 151, 44, 190, 60, 12, 0, 179, 37, 161, 46], [99, 55, 227, 164, 133, 170, 1, 0, 118, 191, 211, 46]]"
20241111_171604,3,4,May,scatter,highest,8,School [8],233,233,8.65,Correct,"[[184, 88, 130, 174, 169, 175, 112, 0, 163, 117, 192, 28], [88, 215, 115, 230, 18, 186, 42, 0, 196, 91, 64, 34], [184, 167, 214, 211, 25, 59, 2, 0, 18, 119, 169, 67], [0, 12, 180, 11, 139, 188, 75, 0, 49, 19, 203, 10], [49, 146, 77, 114, 197, 167, 33, 0, 151, 222, 85, 85], [77, 33, 103, 135, 166, 4, 52, 0, 165, 137, 93, 13], [18, 3, 61, 106, 62, 116, 48, 0, 166, 184, 130, 52], [156, 7, 188, 55, 233, 116, 63, 0, 142, 233, 58, 56], [122, 184, 201, 117, 155, 197, 46, 0, 135, 43, 121, 62], [89, 68, 112, 204, 93, 182, 113, 0, 101, 64, 95, 30]]"
20241111_171604,3,5,September,scatter,highest,3,School [3],147,147,11.66,Correct,"[[36, 119, 180, 13, 19, 136, 83, 0, 130, 201, 12, 32], [167, 182, 121, 192, 37, 102, 45, 0, 135, 181, 71, 60], [88, 161, 53, 57, 60, 104, 81, 0, 147, 169, 115, 105], [49, 135, 43, 182, 72, 158, 5, 0, 136, 57, 128, 5], [170, 140, 27, 124, 5, 82, 62, 0, 35, 194, 175, 0], [214, 62, 167, 8, 14, 128, 115, 0, 145, 225, 187, 6], [184, 30, 170, 74, 73, 61, 105, 0, 141, 227, 146, 95], [27, 171, 37, 234, 214, 215, 26, 0, 41, 11, 86, 78], [107, 115, 176, 156, 74, 195, 18, 0, 31, 75, 187, 63], [2, 142, 221, 173, 235, 142, 106, 0, 89, 73, 184, 97]]"
20241111_171604,3,6,October,scatter,highest,5,School [5],226,226,9.31,Correct,"[[142, 104, 107, 159, 95, 118, 114, 0, 77, 219, 113, 9], [64, 158, 36, 158, 48, 44, 40, 0, 133, 33, 77, 37], [215, 19, 213, 42, 154, 185, 19, 0, 126, 168, 87, 86], [44, 125, 231, 83, 26, 171, 107, 0, 197, 152, 196, 47], [108, 27, 76, 193, 60, 120, 55, 0, 18, 226, 202, 85], [102, 135, 158, 0, 54, 169, 11, 0, 104, 36, 226, 26], [22, 43, 90, 37, 229, 161, 83, 0, 197, 198, 107, 74], [187, 33, 167, 176, 185, 56, 2, 0, 124, 147, 62, 17], [90, 229, 53, 98, 67, 47, 23, 0, 185, 41, 123, 107], [78, 208, 21, 5, 233, 171, 22, 0, 200, 143, 85, 74]]"
20241111_171604,3,7,June,scatter,highest,9,School [9],225,225,8.81,Correct,"[[217, 67, 187, 2, 212, 127, 41, 0, 197, 79, 209, 108], [26, 212, 170, 216, 130, 114, 33, 0, 35, 16, 32, 13], [152, 87, 161, 74, 71, 103, 47, 0, 49, 129, 61, 50], [126, 161, 24, 229, 214, 7, 34, 0, 113, 66, 91, 117], [183, 66, 153, 16, 220, 103, 118, 0, 47, 100, 39, 53], [174, 203, 31, 20, 40, 27, 4, 0, 28, 234, 190, 107], [198, 139, 102, 151, 170, 128, 97, 0, 118, 38, 178, 6], [110, 97, 140, 110, 196, 43, 30, 0, 171, 125, 208, 73], [210, 138, 177, 112, 216, 225, 109, 0, 84, 218, 84, 62], [231, 73, 213, 197, 180, 47, 13, 0, 196, 173, 106, 83]]"
20241111_171604,3,8,June,scatter,highest,9,School [9],236,236,15.29,Correct,"[[147, 111, 142, 117, 44, 40, 31, 0, 110, 136, 197, 109], [131, 20, 184, 117, 129, 116, 74, 0, 170, 32, 170, 17], [33, 41, 149, 40, 27, 172, 29, 0, 169, 45, 174, 116], [132, 185, 165, 51, 36, 195, 28, 0, 109, 1, 50, 109], [5, 116, 115, 155, 216, 10, 78, 0, 131, 129, 190, 116], [229, 15, 72, 228, 94, 199, 23, 0, 53, 158, 46, 24], [22, 48, 136, 34, 46, 33, 66, 0, 25, 165, 104, 91], [122, 184, 90, 83, 18, 79, 56, 0, 172, 204, 136, 40], [9, 55, 42, 66, 13, 236, 39, 0, 166, 131, 168, 25], [179, 169, 195, 181, 227, 55, 60, 0, 59, 137, 192, 18]]"
20241111_171604,3,9,April,scatter,highest,6,School [6],216,216,9.16,Correct,"[[172, 93, 147, 87, 235, 86, 117, 0, 231, 6, 78, 97], [170, 197, 69, 4, 59, 142, 75, 0, 27, 32, 74, 15], [41, 52, 114, 49, 163, 188, 104, 0, 39, 103, 134, 8], [90, 164, 221, 117, 148, 169, 77, 0, 192, 55, 225, 95], [207, 177, 109, 63, 70, 69, 84, 0, 117, 209, 157, 22], [153, 82, 32, 216, 13, 140, 17, 0, 99, 99, 143, 103], [101, 170, 199, 165, 4, 68, 101, 0, 17, 79, 200, 45], [209, 124, 199, 193, 91, 77, 8, 0, 73, 138, 208, 46], [12, 104, 193, 112, 183, 63, 9, 0, 4, 148, 185, 96], [70, 117, 163, 156, 96, 4, 94, 0, 233, 230, 128, 32]]"
20241111_171604,3,10,January,scatter,lowest,3,School [3],27,27,6.31,Correct,"[[75, 191, 34, 200, 212, 134, 6, 0, 50, 130, 227, 18], [60, 229, 161, 185, 40, 23, 104, 0, 167, 27, 102, 32], [27, 78, 20, 64, 37, 91, 91, 0, 63, 41, 98, 55], [129, 44, 210, 127, 24, 70, 1, 0, 52, 114, 153, 81], [106, 53, 131, 120, 211, 183, 35, 0, 235, 230, 129, 25], [200, 203, 149, 169, 116, 227, 63, 0, 125, 158, 217, 88], [221, 236, 158, 56, 5, 162, 19, 0, 24, 181, 9, 48], [91, 55, 112, 149, 205, 46, 0, 0, 182, 144, 2, 35], [139, 26, 3, 209, 48, 206, 59, 0, 98, 33, 189, 61], [172, 207, 230, 88, 45, 77, 72, 0, 219, 90, 28, 43]]"
20241111_171604,3,1,December,heatmap,lowest,5,School [5],20,20,12.95,Correct,"[[88, 191, 142, 65, 138, 51, 77, 0, 196, 207, 13, 76], [181, 136, 0, 30, 77, 202, 22, 0, 230, 184, 46, 80], [30, 91, 144, 100, 224, 115, 10, 0, 146, 72, 128, 48], [101, 180, 5, 148, 175, 169, 112, 0, 120, 19, 53, 103], [138, 28, 83, 125, 23, 206, 36, 0, 144, 59, 20, 20], [71, 150, 97, 7, 171, 197, 109, 0, 68, 92, 37, 40], [153, 201, 22, 172, 156, 30, 16, 0, 39, 138, 51, 25], [31, 38, 71, 126, 163, 229, 112, 0, 116, 151, 41, 100], [99, 185, 155, 218, 218, 78, 5, 0, 146, 18, 193, 55], [195, 59, 122, 79, 116, 52, 73, 0, 131, 136, 70, 62]]"
20241111_171604,3,2,August,heatmap,highest,2,"School [1, 2, 3, 4, 5, 6, 7, 8, 9, 10]",0,0,12.13,Correct,"[[231, 63, 70, 107, 220, 41, 111, 0, 4, 67, 66, 75], [54, 136, 49, 19, 18, 218, 54, 0, 119, 77, 228, 94], [129, 165, 120, 169, 167, 166, 15, 0, 188, 101, 75, 47], [182, 105, 185, 105, 37, 124, 26, 0, 173, 169, 41, 33], [210, 99, 25, 2, 50, 177, 46, 0, 91, 230, 194, 0], [62, 116, 156, 6, 154, 19, 25, 0, 97, 69, 128, 80], [67, 191, 103, 161, 58, 216, 72, 0, 96, 217, 13, 106], [153, 223, 31, 172, 205, 123, 4, 0, 215, 45, 227, 78], [139, 165, 54, 188, 195, 191, 22, 0, 49, 60, 150, 103], [84, 74, 24, 28, 55, 92, 87, 0, 225, 39, 62, 7]]"
20241111_171604,3,3,July,heatmap,highest,3,School [10],117,106,15.69,Wrong,"[[179, 70, 87, 201, 12, 28, 53, 0, 65, 230, 145, 8], [104, 176, 193, 106, 104, 117, 99, 0, 91, 141, 155, 29], [104, 184, 202, 110, 227, 50, 106, 0, 222, 173, 138, 21], [52, 57, 90, 43, 40, 13, 74, 0, 221, 0, 31, 33], [13, 168, 25, 211, 24, 134, 32, 0, 207, 141, 150, 7], [20, 97, 177, 153, 11, 84, 52, 0, 62, 146, 192, 28], [20, 77, 87, 101, 103, 152, 63, 0, 144, 138, 123, 68], [88, 118, 135, 9, 0, 188, 61, 0, 105, 88, 71, 13], [88, 201, 21, 211, 171, 54, 41, 0, 91, 156, 223, 33], [226, 151, 142, 165, 34, 56, 117, 0, 160, 230, 150, 102]]"
20241111_171604,3,4,February,heatmap,lowest,7,School [7],0,0,9.94,Correct,"[[163, 220, 16, 80, 147, 56, 77, 0, 63, 8, 188, 48], [138, 62, 71, 1, 201, 65, 69, 0, 83, 217, 212, 80], [157, 131, 32, 108, 70, 22, 69, 0, 108, 150, 19, 16], [178, 39, 7, 100, 119, 88, 7, 0, 36, 140, 144, 111], [58, 118, 171, 72, 33, 127, 88, 0, 158, 94, 230, 3], [114, 148, 56, 193, 52, 171, 2, 0, 96, 154, 224, 25], [11, 0, 47, 137, 19, 8, 107, 0, 100, 126, 188, 22], [0, 63, 167, 117, 222, 152, 17, 0, 203, 166, 152, 29], [157, 159, 122, 193, 168, 25, 70, 0, 21, 86, 16, 13], [128, 112, 59, 132, 136, 154, 73, 0, 38, 48, 234, 68]]"
20241111_171604,3,5,June,heatmap,highest,3,School [3],234,234,9.83,Correct,"[[3, 31, 82, 199, 163, 197, 77, 0, 127, 7, 42, 89], [215, 104, 230, 12, 167, 224, 106, 0, 82, 53, 164, 6], [133, 215, 14, 170, 165, 234, 13, 0, 91, 44, 160, 102], [25, 28, 140, 135, 62, 4, 45, 0, 187, 105, 36, 32], [66, 160, 24, 22, 12, 125, 25, 0, 107, 48, 135, 110], [90, 4, 99, 112, 158, 122, 111, 0, 9, 163, 88, 114], [168, 211, 167, 215, 26, 107, 98, 0, 115, 51, 45, 58], [29, 212, 89, 4, 50, 143, 1, 0, 91, 126, 35, 50], [51, 116, 25, 68, 193, 92, 108, 0, 144, 27, 27, 103], [131, 60, 153, 202, 226, 13, 44, 0, 118, 0, 219, 118]]"
20241111_171604,3,6,April,heatmap,highest,7,School [7],221,221,7.87,Correct,"[[23, 157, 42, 174, 228, 65, 84, 0, 198, 121, 210, 29], [83, 92, 121, 62, 41, 68, 67, 0, 70, 29, 90, 46], [235, 36, 62, 116, 171, 80, 55, 0, 227, 44, 81, 74], [80, 219, 228, 168, 67, 157, 98, 0, 167, 121, 147, 71], [115, 113, 24, 47, 66, 197, 49, 0, 118, 125, 221, 45], [117, 202, 232, 79, 100, 206, 27, 0, 56, 36, 151, 66], [150, 144, 15, 221, 120, 158, 114, 0, 163, 173, 68, 97], [211, 215, 72, 153, 7, 180, 88, 0, 6, 117, 143, 85], [229, 210, 3, 40, 32, 71, 3, 0, 128, 133, 160, 4], [7, 212, 90, 31, 83, 65, 74, 0, 90, 192, 159, 102]]"
20241111_171604,3,7,June,heatmap,highest,5,School [5],205,205,10.82,Correct,"[[27, 197, 200, 84, 227, 125, 50, 0, 105, 149, 90, 59], [45, 225, 197, 111, 192, 204, 103, 0, 51, 19, 136, 20], [129, 19, 172, 64, 193, 181, 5, 0, 33, 170, 31, 51], [154, 1, 115, 142, 37, 135, 42, 0, 102, 193, 145, 103], [175, 155, 179, 157, 59, 205, 79, 0, 13, 49, 9, 49], [93, 65, 165, 56, 8, 47, 24, 0, 89, 61, 46, 96], [15, 160, 235, 138, 25, 159, 103, 0, 45, 112, 149, 71], [109, 141, 55, 103, 35, 7, 57, 0, 95, 133, 185, 102], [151, 200, 66, 184, 26, 143, 1, 0, 83, 194, 236, 58], [234, 92, 11, 61, 203, 163, 63, 0, 0, 48, 146, 19]]"
20241111_171604,3,8,June,heatmap,lowest,9,School [9],17,17,11.45,Correct,"[[117, 189, 226, 175, 34, 26, 32, 0, 65, 223, 72, 7], [29, 52, 54, 27, 38, 28, 9, 0, 98, 217, 203, 44], [35, 36, 71, 2, 34, 220, 107, 0, 30, 94, 50, 74], [179, 65, 40, 97, 172, 97, 63, 0, 198, 22, 49, 66], [79, 108, 169, 158, 52, 211, 83, 0, 63, 115, 150, 118], [143, 190, 197, 219, 20, 96, 68, 0, 44, 152, 176, 106], [34, 41, 10, 108, 6, 120, 18, 0, 162, 181, 146, 98], [97, 2, 31, 56, 183, 80, 45, 0, 88, 127, 34, 88], [125, 160, 105, 198, 135, 17, 97, 0, 9, 46, 68, 38], [54, 126, 221, 43, 216, 219, 105, 0, 47, 183, 155, 59]]"
20241111_171604,3,9,December,heatmap,highest,5,School [7],97,95,10.53,Wrong,"[[27, 166, 45, 122, 126, 205, 5, 0, 56, 177, 108, 75], [101, 46, 2, 109, 26, 53, 7, 0, 123, 207, 107, 85], [223, 203, 136, 145, 214, 185, 14, 0, 90, 143, 35, 2], [119, 112, 86, 184, 52, 17, 66, 0, 20, 228, 24, 50], [162, 167, 65, 200, 7, 117, 94, 0, 53, 77, 186, 95], [85, 206, 212, 203, 197, 182, 87, 0, 76, 219, 127, 28], [95, 187, 137, 216, 136, 90, 118, 0, 17, 6, 171, 97], [200, 158, 147, 28, 17, 16, 91, 0, 221, 82, 94, 1], [148, 78, 7, 102, 20, 72, 63, 0, 76, 70, 67, 0], [97, 28, 64, 117, 114, 179, 20, 0, 91, 25, 78, 93]]"
20241111_171604,3,10,December,heatmap,lowest,5,School [5],14,14,7.33,Correct,"[[0, 47, 45, 153, 86, 61, 94, 0, 154, 94, 152, 71], [94, 27, 138, 112, 79, 145, 70, 0, 21, 45, 210, 19], [219, 123, 86, 189, 139, 210, 85, 0, 138, 235, 82, 89], [104, 61, 113, 226, 202, 91, 63, 0, 73, 22, 114, 93], [133, 194, 191, 48, 190, 94, 66, 0, 158, 66, 91, 14], [83, 32, 192, 186, 57, 205, 31, 0, 27, 161, 188, 19], [155, 169, 95, 33, 204, 156, 30, 0, 24, 125, 86, 89], [100, 37, 36, 137, 155, 137, 103, 0, 155, 25, 81, 57], [188, 151, 16, 30, 2, 57, 23, 0, 130, 149, 2, 20], [28, 75, 28, 217, 222, 17, 61, 0, 93, 172, 117, 75]]"
20241111_172712,4,1,February,scatter,lowest,7,School [7],6,6,12.22,Correct,"[[98, 217, 232, 149, 149, 14, 103, 0, 93, 144, 40, 43], [72, 70, 70, 28, 54, 107, 60, 0, 215, 145, 44, 19], [43, 208, 180, 234, 29, 42, 3, 0, 150, 86, 55, 20], [103, 86, 0, 101, 66, 91, 11, 0, 67, 147, 157, 71], [22, 190, 74, 84, 34, 168, 101, 0, 15, 49, 4, 60], [167, 62, 214, 173, 85, 13, 31, 0, 59, 212, 171, 22], [99, 6, 29, 111, 185, 24, 100, 0, 169, 82, 180, 27], [103, 60, 126, 215, 195, 145, 63, 0, 164, 109, 58, 118], [171, 146, 214, 226, 211, 94, 74, 0, 168, 118, 90, 2], [135, 44, 77, 23, 159, 126, 74, 0, 96, 82, 234, 102]]"
20241111_172712,4,2,January,scatter,highest,10,School [10],165,165,13.94,Correct,"[[108, 228, 196, 49, 191, 150, 58, 0, 176, 101, 209, 36], [43, 38, 173, 80, 88, 137, 3, 0, 90, 110, 61, 76], [93, 210, 24, 160, 1, 97, 12, 0, 105, 219, 69, 60], [14, 116, 115, 190, 21, 6, 35, 0, 139, 52, 219, 83], [29, 211, 90, 119, 99, 234, 44, 0, 59, 103, 180, 107], [72, 13, 59, 60, 34, 87, 115, 0, 102, 164, 65, 2], [6, 42, 202, 40, 202, 43, 48, 0, 229, 148, 117, 51], [159, 72, 72, 187, 173, 2, 74, 0, 153, 188, 179, 59], [55, 223, 230, 201, 63, 43, 17, 0, 217, 98, 181, 49], [165, 166, 207, 228, 58, 201, 105, 0, 143, 199, 64, 117]]"
20241111_172712,4,3,July,scatter,highest,8,School [8],112,112,10.99,Correct,"[[43, 101, 126, 67, 114, 169, 39, 0, 220, 171, 104, 60], [14, 195, 4, 22, 129, 120, 49, 0, 57, 78, 136, 40], [90, 136, 30, 147, 9, 116, 30, 0, 80, 195, 141, 4], [21, 42, 154, 149, 33, 149, 76, 0, 205, 21, 167, 34], [165, 3, 217, 123, 188, 11, 3, 0, 102, 194, 230, 34], [220, 22, 104, 19, 136, 20, 53, 0, 69, 29, 58, 66], [134, 18, 54, 143, 129, 103, 96, 0, 129, 168, 211, 36], [170, 199, 149, 94, 153, 168, 112, 0, 199, 179, 83, 7], [231, 221, 27, 140, 112, 12, 19, 0, 90, 107, 192, 24], [174, 193, 157, 22, 31, 19, 54, 0, 98, 228, 191, 109]]"
20241111_172712,4,4,March,scatter,lowest,9,School [9],21,21,24.36,Correct,"[[134, 27, 91, 73, 196, 7, 91, 0, 57, 227, 156, 88], [156, 9, 29, 205, 131, 118, 49, 0, 125, 40, 85, 75], [74, 215, 50, 32, 226, 66, 88, 0, 172, 227, 99, 109], [38, 172, 25, 205, 82, 152, 3, 0, 180, 122, 235, 9], [29, 104, 101, 130, 118, 26, 3, 0, 65, 30, 158, 75], [37, 48, 95, 40, 33, 118, 47, 0, 9, 47, 138, 69], [83, 150, 79, 158, 211, 115, 111, 0, 26, 219, 221, 28], [165, 73, 127, 97, 171, 85, 114, 0, 71, 162, 124, 50], [60, 210, 21, 139, 47, 90, 55, 0, 139, 107, 52, 42], [205, 14, 111, 130, 161, 21, 75, 0, 205, 145, 174, 84]]"
20241111_172712,4,5,July,scatter,lowest,2,School [2],1,1,10.01,Correct,"[[56, 35, 231, 46, 2, 221, 67, 0, 103, 78, 187, 62], [67, 93, 89, 167, 178, 191, 1, 0, 164, 85, 127, 111], [40, 174, 71, 89, 4, 80, 35, 0, 66, 170, 233, 9], [99, 225, 2, 194, 178, 88, 80, 0, 171, 29, 16, 68], [110, 43, 54, 68, 80, 133, 13, 0, 199, 186, 196, 115], [174, 138, 146, 106, 104, 140, 18, 0, 228, 29, 8, 33], [80, 132, 50, 33, 79, 10, 55, 0, 150, 113, 86, 98], [101, 80, 177, 217, 135, 41, 81, 0, 41, 236, 85, 41], [23, 149, 170, 12, 97, 228, 37, 0, 179, 129, 77, 5], [82, 49, 73, 30, 174, 165, 91, 0, 121, 136, 73, 78]]"
20241111_172712,4,6,November,scatter,lowest,10,School [10],21,21,5.12,Correct,"[[181, 5, 46, 86, 32, 23, 30, 0, 61, 109, 177, 84], [174, 74, 24, 23, 133, 183, 37, 0, 172, 75, 108, 23], [204, 180, 102, 38, 209, 195, 29, 0, 99, 181, 61, 118], [224, 24, 28, 26, 62, 199, 118, 0, 56, 141, 127, 13], [98, 133, 208, 208, 48, 231, 3, 0, 2, 206, 77, 13], [153, 38, 176, 200, 81, 124, 19, 0, 70, 75, 113, 99], [214, 75, 30, 146, 37, 167, 63, 0, 187, 177, 79, 68], [236, 155, 48, 85, 52, 189, 22, 0, 193, 92, 212, 61], [83, 236, 157, 206, 220, 179, 111, 0, 135, 67, 215, 22], [15, 78, 74, 140, 23, 171, 116, 0, 29, 4, 21, 87]]"
20241111_172712,4,7,March,scatter,highest,3,School [3],229,229,4.68,Correct,"[[172, 144, 131, 157, 155, 170, 95, 0, 1, 230, 185, 24], [233, 112, 192, 128, 36, 59, 11, 0, 147, 184, 198, 75], [72, 170, 229, 56, 130, 15, 24, 0, 149, 50, 14, 56], [7, 146, 141, 161, 93, 190, 37, 0, 94, 115, 157, 97], [108, 30, 183, 49, 155, 147, 58, 0, 152, 136, 136, 107], [154, 204, 17, 99, 144, 112, 39, 0, 172, 218, 63, 71], [227, 89, 53, 15, 195, 198, 42, 0, 227, 96, 39, 104], [68, 234, 16, 24, 8, 13, 49, 0, 183, 105, 95, 32], [191, 150, 91, 116, 100, 53, 73, 0, 205, 228, 206, 72], [125, 145, 126, 77, 133, 12, 7, 0, 30, 171, 98, 59]]"
20241111_172712,4,8,July,scatter,lowest,9,School [8],3,46,14.34,Wrong,"[[111, 189, 18, 82, 53, 138, 66, 0, 205, 144, 200, 116], [79, 29, 118, 117, 88, 85, 30, 0, 2, 98, 193, 0], [94, 172, 173, 79, 87, 198, 71, 0, 152, 0, 79, 25], [78, 115, 153, 188, 218, 37, 87, 0, 129, 121, 223, 103], [66, 197, 98, 156, 85, 68, 51, 0, 113, 202, 56, 15], [182, 78, 103, 55, 41, 54, 34, 0, 165, 29, 38, 91], [99, 152, 89, 203, 157, 174, 117, 0, 84, 155, 88, 59], [71, 33, 10, 41, 37, 7, 3, 0, 65, 93, 175, 72], [27, 79, 102, 173, 97, 34, 46, 0, 226, 189, 54, 117], [42, 168, 22, 190, 236, 79, 85, 0, 126, 79, 24, 59]]"
20241111_172712,4,9,May,scatter,lowest,8,School [8],6,6,4.81,Correct,"[[98, 159, 98, 180, 36, 9, 66, 0, 188, 1, 2, 90], [0, 143, 138, 168, 75, 230, 114, 0, 222, 205, 157, 96], [77, 104, 48, 202, 169, 98, 104, 0, 203, 169, 11, 44], [88, 18, 89, 7, 130, 227, 94, 0, 161, 131, 111, 105], [51, 74, 171, 218, 206, 73, 114, 0, 91, 19, 233, 35], [115, 65, 2, 203, 125, 109, 112, 0, 2, 215, 0, 32], [45, 89, 141, 151, 104, 137, 101, 0, 183, 181, 111, 64], [184, 88, 9, 41, 6, 220, 113, 0, 232, 66, 84, 29], [180, 179, 161, 183, 224, 7, 32, 0, 0, 29, 11, 68], [103, 163, 214, 72, 125, 24, 25, 0, 148, 184, 104, 77]]"
20241111_172712,4,10,August,scatter,lowest,4,"School [1, 2, 3, 4, 5, 6, 7, 8, 9, 10]",0,0,14.02,Correct,"[[56, 27, 6, 59, 119, 97, 74, 0, 89, 42, 190, 25], [215, 105, 33, 215, 67, 47, 96, 0, 65, 6, 153, 76], [78, 64, 19, 14, 150, 38, 114, 0, 230, 80, 216, 36], [56, 69, 103, 144, 81, 162, 83, 0, 29, 182, 149, 0], [83, 162, 28, 79, 187, 209, 17, 0, 43, 13, 14, 100], [132, 56, 35, 49, 29, 187, 16, 0, 190, 212, 104, 113], [20, 172, 49, 134, 213, 125, 2, 0, 143, 16, 90, 33], [31, 201, 193, 128, 30, 44, 100, 0, 168, 7, 52, 60], [208, 8, 78, 160, 58, 4, 52, 0, 17, 208, 12, 22], [54, 76, 172, 14, 21, 14, 98, 0, 82, 45, 99, 28]]"
20241111_172712,4,1,August,heatmap,lowest,6,"School [1, 2, 3, 4, 5, 6, 7, 8, 9, 10]",0,0,8.42,Correct,"[[98, 127, 34, 181, 152, 58, 16, 0, 168, 170, 89, 69], [145, 52, 51, 126, 30, 5, 113, 0, 152, 52, 143, 20], [80, 56, 121, 189, 114, 36, 21, 0, 129, 58, 1, 46], [184, 124, 29, 72, 158, 220, 14, 0, 99, 79, 189, 92], [64, 51, 145, 47, 117, 153, 97, 0, 27, 53, 44, 65], [92, 27, 42, 95, 210, 215, 25, 0, 77, 203, 189, 16], [234, 160, 149, 108, 226, 234, 34, 0, 124, 212, 141, 102], [210, 130, 10, 126, 45, 135, 109, 0, 83, 55, 235, 7], [46, 8, 38, 57, 163, 68, 62, 0, 49, 134, 106, 83], [76, 229, 87, 3, 110, 228, 14, 0, 166, 108, 77, 77]]"
20241111_172712,4,2,October,heatmap,highest,3,School [3],221,221,8.66,Correct,"[[6, 150, 115, 88, 40, 112, 55, 0, 199, 206, 36, 16], [160, 225, 99, 112, 104, 229, 91, 0, 178, 64, 66, 90], [71, 65, 148, 187, 181, 95, 81, 0, 84, 221, 3, 72], [134, 133, 179, 2, 92, 132, 60, 0, 170, 22, 183, 28], [171, 25, 154, 27, 220, 133, 0, 0, 23, 200, 15, 24], [164, 42, 46, 99, 41, 194, 19, 0, 13, 172, 208, 105], [236, 225, 234, 98, 218, 87, 20, 0, 137, 161, 230, 41], [180, 67, 63, 168, 128, 153, 93, 0, 65, 126, 79, 43], [75, 11, 72, 151, 61, 41, 110, 0, 129, 111, 150, 112], [196, 7, 81, 49, 43, 12, 54, 0, 15, 47, 5, 30]]"
20241111_172712,4,3,May,heatmap,lowest,4,School [7],17,34,10.83,Wrong,"[[196, 52, 31, 63, 203, 178, 65, 0, 129, 187, 226, 73], [109, 188, 149, 45, 140, 115, 66, 0, 83, 28, 209, 39], [234, 95, 215, 225, 116, 80, 96, 0, 178, 187, 62, 81], [12, 228, 190, 119, 34, 46, 37, 0, 16, 44, 91, 106], [49, 229, 177, 35, 161, 126, 93, 0, 235, 51, 236, 95], [13, 71, 201, 14, 143, 23, 77, 0, 32, 153, 15, 9], [191, 142, 177, 187, 17, 209, 72, 0, 55, 69, 224, 100], [123, 125, 107, 179, 106, 206, 59, 0, 128, 176, 78, 78], [68, 22, 92, 152, 127, 172, 63, 0, 128, 228, 230, 103], [196, 30, 207, 212, 160, 181, 71, 0, 160, 142, 99, 48]]"
20241111_172712,4,4,February,heatmap,lowest,1,School [1],52,52,21.36,Correct,"[[189, 52, 152, 50, 55, 71, 36, 0, 26, 110, 153, 18], [210, 213, 105, 42, 11, 11, 44, 0, 54, 159, 224, 10], [79, 103, 211, 214, 45, 163, 76, 0, 107, 206, 80, 79], [76, 178, 192, 57, 126, 56, 72, 0, 108, 97, 106, 44], [69, 134, 228, 193, 214, 71, 65, 0, 47, 197, 9, 30], [139, 195, 38, 114, 108, 32, 40, 0, 145, 41, 33, 72], [94, 164, 8, 156, 48, 80, 39, 0, 209, 38, 212, 80], [229, 229, 92, 215, 24, 55, 82, 0, 68, 61, 133, 89], [208, 108, 89, 40, 191, 105, 72, 0, 35, 98, 139, 51], [166, 159, 48, 176, 220, 103, 3, 0, 18, 16, 123, 48]]"
20241111_172712,4,5,January,heatmap,highest,10,School [10],228,228,8.21,Correct,"[[86, 219, 54, 116, 71, 57, 32, 0, 178, 108, 53, 86], [60, 210, 118, 58, 151, 38, 68, 0, 166, 128, 48, 33], [173, 201, 46, 176, 105, 182, 68, 0, 3, 116, 28, 60], [205, 139, 43, 167, 36, 57, 61, 0, 204, 69, 60, 18], [6, 1, 5, 173, 1, 30, 86, 0, 44, 14, 17, 98], [35, 74, 222, 236, 172, 154, 41, 0, 134, 60, 235, 11], [174, 164, 146, 136, 54, 17, 70, 0, 177, 144, 40, 118], [69, 170, 9, 120, 78, 150, 3, 0, 145, 86, 131, 99], [130, 12, 66, 191, 150, 24, 37, 0, 199, 202, 160, 18], [228, 45, 201, 115, 214, 165, 67, 0, 126, 87, 223, 11]]"
20241111_172712,4,6,January,heatmap,highest,5,School [9],205,30,8.67,Wrong,"[[36, 139, 162, 160, 203, 163, 0, 0, 145, 118, 180, 39], [93, 226, 110, 43, 12, 162, 20, 0, 29, 231, 82, 18], [125, 185, 102, 127, 124, 235, 30, 0, 165, 221, 71, 39], [51, 76, 78, 2, 25, 217, 96, 0, 99, 116, 134, 96], [30, 93, 150, 117, 144, 205, 24, 0, 103, 205, 150, 94], [105, 158, 176, 125, 39, 157, 10, 0, 209, 206, 77, 72], [150, 145, 210, 170, 65, 208, 78, 0, 226, 176, 136, 52], [48, 220, 50, 178, 177, 107, 38, 0, 82, 30, 18, 91], [205, 106, 145, 164, 60, 13, 44, 0, 103, 85, 207, 111], [23, 21, 86, 39, 30, 13, 18, 0, 169, 100, 186, 97]]"
20241111_172712,4,7,November,heatmap,lowest,5,School [10],4,236,7.74,Wrong,"[[204, 110, 185, 76, 89, 64, 111, 0, 48, 113, 77, 10], [135, 204, 40, 135, 115, 212, 72, 0, 74, 191, 135, 98], [97, 236, 100, 217, 56, 234, 34, 0, 218, 27, 121, 26], [151, 133, 209, 163, 149, 64, 55, 0, 102, 184, 227, 26], [95, 172, 171, 148, 115, 223, 65, 0, 185, 178, 236, 60], [44, 2, 147, 39, 224, 158, 87, 0, 61, 191, 188, 107], [148, 63, 111, 73, 0, 214, 61, 0, 31, 139, 79, 101], [157, 224, 187, 160, 152, 149, 68, 0, 125, 217, 145, 24], [125, 23, 60, 137, 76, 50, 15, 0, 181, 129, 88, 28], [188, 204, 193, 62, 150, 105, 64, 0, 9, 5, 4, 39]]"
20241111_172712,4,8,April,heatmap,lowest,6,School [6],1,1,7.44,Correct,"[[28, 7, 162, 25, 13, 211, 3, 0, 4, 134, 179, 43], [55, 8, 214, 52, 105, 1, 4, 0, 118, 25, 190, 52], [204, 176, 44, 218, 222, 208, 18, 0, 107, 37, 165, 7], [34, 224, 69, 204, 171, 101, 90, 0, 198, 207, 186, 101], [26, 44, 178, 166, 67, 69, 63, 0, 172, 102, 234, 46], [2, 46, 86, 1, 190, 65, 16, 0, 227, 50, 138, 37], [124, 137, 127, 218, 228, 115, 102, 0, 104, 104, 219, 100], [27, 150, 204, 23, 22, 41, 13, 0, 69, 145, 150, 44], [184, 236, 116, 92, 16, 109, 70, 0, 113, 76, 105, 11], [87, 204, 129, 86, 225, 31, 30, 0, 128, 130, 188, 43]]"
20241111_172712,4,9,January,heatmap,lowest,8,School [8],68,68,9.94,Correct,"[[124, 14, 105, 87, 189, 102, 102, 0, 59, 8, 211, 11], [131, 11, 54, 145, 95, 121, 68, 0, 114, 114, 230, 112], [76, 231, 186, 180, 182, 203, 57, 0, 187, 176, 160, 51], [205, 55, 79, 121, 55, 76, 0, 0, 134, 131, 28, 14], [196, 91, 68, 101, 88, 191, 113, 0, 192, 193, 124, 63], [175, 27, 178, 169, 186, 88, 40, 0, 214, 166, 193, 11], [179, 4, 105, 66, 97, 198, 112, 0, 109, 6, 233, 48], [68, 99, 41, 98, 109, 29, 13, 0, 190, 45, 151, 91], [230, 233, 145, 171, 138, 71, 38, 0, 204, 88, 6, 31], [84, 59, 56, 45, 99, 15, 83, 0, 8, 128, 51, 25]]"
20241111_172712,4,10,March,heatmap,lowest,4,School [4],37,37,15.59,Correct,"[[82, 175, 185, 139, 233, 229, 16, 0, 101, 127, 224, 60], [182, 1, 107, 162, 70, 52, 94, 0, 109, 126, 18, 80], [232, 169, 113, 76, 234, 179, 25, 0, 149, 107, 36, 115], [201, 49, 37, 162, 146, 33, 110, 0, 21, 98, 200, 80], [72, 55, 82, 234, 108, 91, 34, 0, 67, 18, 33, 0], [69, 44, 61, 56, 4, 29, 61, 0, 46, 218, 116, 38], [192, 197, 40, 16, 115, 236, 72, 0, 150, 180, 27, 60], [59, 207, 217, 4, 235, 67, 18, 0, 210, 108, 65, 116], [198, 109, 164, 144, 161, 196, 44, 0, 121, 45, 33, 64], [183, 171, 129, 119, 173, 96, 42, 0, 180, 80, 154, 54]]"
20241111_173424,5,1,August,scatter,highest,1,"School [1, 2, 3, 4, 5, 6, 7, 8, 9, 10]",0,0,29.27,Correct,"[[144, 99, 132, 11, 47, 219, 22, 0, 35, 210, 73, 24], [65, 136, 37, 101, 236, 213, 5, 0, 172, 150, 16, 11], [212, 195, 235, 225, 136, 131, 99, 0, 130, 52, 127, 107], [80, 55, 54, 88, 49, 188, 61, 0, 66, 146, 196, 17], [35, 182, 47, 188, 74, 38, 96, 0, 56, 82, 30, 71], [62, 118, 137, 59, 139, 175, 104, 0, 132, 120, 101, 8], [129, 210, 110, 152, 173, 191, 112, 0, 228, 26, 218, 117], [15, 7, 111, 200, 21, 15, 5, 0, 194, 198, 205, 4], [213, 37, 129, 81, 124, 126, 38, 0, 227, 214, 213, 59], [99, 40, 72, 41, 66, 57, 38, 0, 160, 75, 31, 105]]"
20241111_173424,5,2,September,scatter,highest,8,School [10],231,130,10.43,Wrong,"[[6, 181, 193, 87, 186, 49, 88, 0, 60, 178, 165, 76], [92, 216, 170, 223, 113, 1, 33, 0, 97, 215, 165, 67], [57, 58, 107, 148, 78, 87, 22, 0, 123, 111, 1, 96], [9, 93, 219, 226, 153, 42, 102, 0, 86, 207, 163, 61], [128, 69, 115, 147, 196, 32, 71, 0, 17, 19, 209, 50], [231, 38, 195, 112, 96, 235, 101, 0, 113, 47, 191, 37], [5, 194, 130, 177, 7, 119, 16, 0, 72, 198, 48, 90], [76, 79, 116, 233, 235, 75, 118, 0, 130, 62, 132, 30], [150, 136, 226, 192, 159, 147, 48, 0, 85, 13, 170, 19], [194, 134, 168, 120, 211, 215, 1, 0, 231, 221, 116, 57]]"
20241111_173424,5,3,January,scatter,lowest,4,School [4],30,30,7.03,Correct,"[[146, 63, 231, 209, 172, 232, 86, 0, 50, 80, 226, 58], [128, 41, 193, 70, 167, 121, 40, 0, 195, 233, 120, 101], [172, 26, 217, 169, 186, 91, 68, 0, 116, 173, 31, 54], [30, 155, 159, 23, 64, 5, 89, 0, 108, 125, 83, 92], [35, 38, 232, 3, 197, 95, 76, 0, 49, 216, 189, 2], [53, 162, 204, 105, 6, 17, 74, 0, 11, 201, 129, 96], [79, 2, 95, 7, 109, 40, 116, 0, 221, 35, 228, 30], [80, 109, 192, 2, 137, 100, 81, 0, 187, 154, 187, 92], [73, 145, 88, 112, 193, 32, 40, 0, 131, 66, 54, 1], [94, 4, 164, 60, 188, 60, 52, 0, 10, 235, 97, 118]]"
20241111_173424,5,4,March,scatter,lowest,1,School [1],14,14,5.37,Correct,"[[66, 84, 14, 200, 116, 163, 58, 0, 92, 143, 150, 105], [110, 25, 123, 92, 92, 92, 77, 0, 66, 188, 235, 56], [25, 39, 57, 44, 111, 68, 52, 0, 158, 90, 218, 93], [88, 145, 92, 152, 149, 143, 98, 0, 218, 191, 163, 64], [191, 97, 236, 30, 150, 97, 59, 0, 14, 190, 162, 75], [28, 157, 128, 186, 109, 162, 75, 0, 206, 11, 182, 15], [197, 98, 221, 204, 112, 56, 8, 0, 186, 231, 143, 74], [221, 189, 216, 72, 182, 64, 41, 0, 229, 127, 157, 54], [71, 144, 130, 145, 192, 160, 77, 0, 101, 18, 8, 86], [210, 185, 57, 220, 17, 200, 16, 0, 131, 62, 24, 28]]"
20241111_173424,5,5,December,scatter,highest,6,School [6],100,100,5.56,Correct,"[[26, 189, 46, 51, 116, 27, 110, 0, 70, 231, 36, 91], [144, 144, 27, 181, 183, 173, 26, 0, 123, 76, 222, 92], [84, 95, 164, 127, 231, 191, 115, 0, 174, 38, 16, 3], [48, 210, 101, 19, 117, 153, 7, 0, 147, 142, 127, 36], [230, 137, 226, 13, 213, 206, 5, 0, 94, 38, 66, 85], [116, 49, 42, 99, 75, 61, 102, 0, 216, 59, 12, 100], [202, 97, 149, 57, 215, 23, 46, 0, 96, 170, 5, 96], [63, 166, 204, 62, 93, 65, 107, 0, 228, 4, 234, 85], [225, 228, 140, 99, 15, 109, 85, 0, 89, 142, 123, 3], [214, 159, 8, 223, 160, 88, 112, 0, 220, 197, 98, 50]]"
20241111_173424,5,6,March,scatter,lowest,5,School [5],53,53,6.97,Correct,"[[195, 86, 102, 59, 142, 187, 95, 0, 5, 26, 182, 68], [48, 210, 136, 106, 25, 38, 22, 0, 209, 202, 148, 3], [76, 20, 139, 97, 69, 230, 16, 0, 119, 141, 192, 103], [169, 73, 145, 92, 172, 20, 4, 0, 136, 171, 5, 82], [208, 7, 53, 68, 25, 79, 27, 0, 190, 104, 62, 6], [160, 234, 232, 32, 42, 193, 26, 0, 171, 54, 104, 64], [166, 135, 107, 106, 197, 213, 42, 0, 122, 76, 144, 39], [56, 114, 93, 175, 119, 24, 73, 0, 166, 0, 81, 16], [182, 59, 192, 51, 17, 108, 77, 0, 224, 126, 123, 71], [234, 233, 130, 12, 91, 154, 75, 0, 85, 67, 10, 33]]"
20241111_173424,5,7,May,scatter,highest,4,School [4],216,216,7.9,Correct,"[[102, 219, 46, 13, 69, 173, 97, 0, 51, 208, 38, 85], [168, 132, 11, 58, 14, 59, 65, 0, 166, 19, 111, 81], [52, 36, 96, 225, 194, 161, 3, 0, 109, 191, 195, 97], [207, 158, 82, 144, 216, 40, 7, 0, 229, 10, 32, 69], [88, 119, 79, 161, 46, 21, 9, 0, 184, 179, 216, 3], [146, 188, 33, 24, 15, 72, 53, 0, 63, 191, 230, 62], [153, 102, 2, 35, 15, 95, 83, 0, 56, 80, 72, 48], [185, 83, 182, 14, 91, 153, 102, 0, 57, 9, 198, 13], [87, 21, 115, 154, 57, 4, 86, 0, 151, 148, 141, 13], [109, 173, 61, 42, 180, 83, 3, 0, 206, 81, 130, 97]]"
20241111_173424,5,8,March,scatter,highest,4,School [10],228,127,8.35,Wrong,"[[218, 129, 13, 13, 113, 197, 41, 0, 116, 232, 81, 22], [1, 235, 37, 64, 112, 164, 20, 0, 188, 129, 39, 54], [55, 71, 69, 81, 95, 75, 87, 0, 40, 80, 176, 48], [54, 22, 127, 123, 209, 54, 73, 0, 43, 226, 167, 11], [152, 82, 55, 85, 152, 15, 74, 0, 156, 39, 50, 102], [169, 53, 54, 190, 200, 186, 99, 0, 153, 155, 120, 40], [148, 178, 73, 96, 172, 199, 59, 0, 71, 236, 16, 77], [189, 117, 84, 94, 193, 22, 60, 0, 180, 229, 228, 83], [143, 152, 79, 21, 116, 135, 36, 0, 155, 108, 133, 43], [122, 160, 228, 159, 17, 157, 32, 0, 205, 185, 74, 59]]"
20241111_173424,5,9,August,scatter,lowest,1,"School [1, 2, 3, 4, 5, 6, 7, 8, 9, 10]",0,0,5.91,Correct,"[[196, 27, 106, 163, 5, 80, 53, 0, 128, 49, 104, 7], [231, 90, 25, 198, 207, 169, 83, 0, 215, 164, 2, 110], [148, 124, 92, 227, 76, 27, 94, 0, 31, 142, 188, 59], [217, 77, 124, 210, 35, 109, 13, 0, 36, 49, 63, 31], [59, 194, 69, 183, 102, 21, 22, 0, 80, 113, 111, 78], [30, 123, 85, 177, 220, 143, 27, 0, 52, 87, 79, 29], [66, 91, 53, 220, 78, 71, 77, 0, 194, 146, 215, 104], [148, 84, 236, 198, 85, 90, 14, 0, 34, 19, 28, 106], [114, 71, 215, 30, 75, 38, 54, 0, 106, 184, 175, 60], [222, 190, 144, 223, 6, 149, 19, 0, 118, 236, 211, 21]]"
20241111_173424,5,10,July,scatter,lowest,7,School [7],5,5,8.46,Correct,"[[101, 94, 155, 54, 0, 33, 13, 0, 24, 210, 59, 93], [110, 209, 235, 89, 83, 50, 44, 0, 209, 156, 61, 42], [221, 204, 2, 179, 26, 207, 97, 0, 129, 82, 21, 28], [26, 112, 136, 44, 169, 92, 62, 0, 235, 207, 26, 83], [24, 41, 87, 16, 86, 91, 70, 0, 210, 143, 210, 112], [154, 117, 48, 64, 41, 12, 113, 0, 6, 23, 154, 33], [0, 234, 168, 209, 194, 162, 5, 0, 205, 202, 107, 47], [22, 94, 88, 17, 63, 180, 35, 0, 57, 141, 53, 9], [186, 121, 196, 2, 19, 76, 29, 0, 101, 214, 54, 65], [154, 228, 20, 127, 217, 50, 92, 0, 181, 233, 21, 114]]"
20241111_173424,5,1,November,heatmap,highest,2,School [2],205,205,21.23,Correct,"[[209, 199, 90, 146, 97, 10, 75, 0, 176, 147, 44, 95], [39, 179, 163, 211, 198, 215, 41, 0, 209, 151, 205, 98], [54, 188, 171, 26, 177, 215, 88, 0, 144, 118, 119, 18], [179, 104, 108, 21, 29, 228, 49, 0, 21, 144, 127, 92], [43, 160, 226, 231, 213, 227, 98, 0, 159, 1, 142, 82], [70, 165, 214, 13, 140, 234, 18, 0, 196, 135, 29, 114], [104, 231, 234, 73, 145, 158, 102, 0, 139, 94, 192, 12], [71, 226, 88, 138, 34, 141, 82, 0, 166, 112, 32, 72], [29, 117, 6, 15, 199, 186, 11, 0, 27, 200, 51, 10], [113, 204, 75, 166, 75, 155, 16, 0, 225, 195, 125, 14]]"
20241111_173424,5,2,April,heatmap,highest,4,School [4],180,180,9.88,Correct,"[[59, 18, 19, 121, 207, 83, 66, 0, 117, 209, 173, 114], [113, 10, 190, 156, 147, 184, 36, 0, 66, 51, 195, 88], [171, 57, 88, 37, 191, 141, 51, 0, 69, 144, 146, 93], [231, 118, 131, 180, 135, 0, 83, 0, 188, 55, 209, 8], [36, 187, 111, 125, 195, 92, 27, 0, 227, 211, 193, 34], [104, 13, 42, 35, 190, 50, 48, 0, 61, 181, 192, 92], [80, 236, 71, 65, 223, 24, 89, 0, 39, 127, 73, 39], [3, 94, 59, 74, 38, 192, 112, 0, 142, 41, 146, 81], [55, 138, 121, 105, 189, 164, 72, 0, 102, 28, 18, 94], [155, 16, 121, 59, 152, 179, 55, 0, 90, 83, 142, 85]]"
20241111_173424,5,3,October,heatmap,lowest,1,School [1],14,14,10.26,Correct,"[[9, 134, 235, 11, 141, 153, 25, 0, 173, 14, 41, 59], [206, 232, 212, 25, 141, 23, 73, 0, 204, 37, 132, 4], [5, 228, 118, 175, 167, 4, 83, 0, 201, 208, 34, 69], [41, 60, 25, 214, 31, 118, 3, 0, 230, 94, 198, 106], [36, 155, 69, 205, 135, 43, 117, 0, 150, 108, 54, 77], [137, 112, 142, 42, 214, 163, 29, 0, 132, 197, 108, 77], [136, 18, 154, 38, 228, 129, 36, 0, 164, 163, 96, 96], [7, 25, 231, 52, 187, 165, 63, 0, 49, 63, 34, 15], [172, 3, 159, 42, 12, 227, 116, 0, 231, 193, 75, 18], [58, 201, 143, 152, 167, 136, 31, 0, 161, 134, 118, 60]]"
20241111_173424,5,4,August,heatmap,lowest,1,"School [1, 2, 3, 4, 5, 6, 7, 8, 9, 10]",0,0,4.59,Correct,"[[58, 19, 26, 156, 152, 124, 100, 0, 194, 50, 122, 84], [134, 169, 42, 199, 146, 143, 110, 0, 26, 217, 104, 67], [210, 43, 181, 36, 126, 4, 49, 0, 108, 197, 138, 116], [164, 200, 134, 97, 88, 48, 30, 0, 15, 205, 94, 40], [90, 65, 142, 61, 44, 150, 115, 0, 135, 123, 7, 14], [106, 122, 59, 15, 123, 132, 67, 0, 87, 126, 208, 3], [32, 188, 118, 14, 77, 60, 86, 0, 196, 147, 125, 11], [209, 23, 156, 81, 80, 120, 29, 0, 156, 121, 223, 118], [162, 1, 171, 23, 81, 187, 5, 0, 11, 123, 127, 97], [104, 12, 60, 25, 124, 87, 95, 0, 62, 5, 132, 94]]"
20241111_173424,5,5,January,heatmap,highest,4,School [4],178,178,6.01,Correct,"[[124, 29, 184, 227, 145, 149, 91, 0, 89, 99, 142, 50], [119, 50, 193, 71, 173, 143, 112, 0, 173, 134, 149, 79], [136, 12, 155, 149, 181, 96, 59, 0, 228, 57, 104, 20], [178, 182, 7, 13, 48, 132, 40, 0, 19, 114, 141, 32], [148, 229, 153, 23, 68, 180, 6, 0, 143, 188, 7, 115], [107, 64, 170, 145, 35, 1, 116, 0, 218, 195, 120, 111], [33, 32, 109, 93, 221, 234, 14, 0, 191, 141, 82, 12], [112, 22, 44, 36, 55, 118, 1, 0, 79, 234, 137, 33], [45, 122, 153, 14, 108, 35, 85, 0, 31, 45, 217, 37], [16, 139, 70, 7, 98, 38, 41, 0, 111, 20, 59, 101]]"
20241111_173424,5,6,August,heatmap,lowest,1,"School [1, 2, 3, 4, 5, 6, 7, 8, 9, 10]",0,0,4.84,Correct,"[[200, 119, 236, 39, 35, 204, 104, 0, 58, 62, 212, 65], [221, 215, 92, 206, 56, 164, 69, 0, 76, 57, 155, 117], [164, 115, 2, 78, 94, 50, 65, 0, 89, 127, 111, 90], [119, 206, 66, 50, 69, 73, 78, 0, 128, 168, 192, 20], [185, 42, 107, 223, 101, 50, 82, 0, 198, 68, 14, 36], [189, 236, 38, 227, 89, 133, 6, 0, 12, 97, 135, 78], [117, 9, 200, 86, 235, 148, 11, 0, 205, 202, 8, 91], [196, 92, 76, 60, 153, 87, 94, 0, 197, 31, 12, 2], [147, 79, 34, 81, 183, 185, 110, 0, 113, 155, 135, 72], [17, 29, 97, 77, 156, 24, 98, 0, 167, 47, 104, 59]]"
20241111_173424,5,7,June,heatmap,highest,6,School [6],211,211,9.73,Correct,"[[6, 31, 9, 159, 129, 156, 58, 0, 52, 45, 140, 115], [72, 9, 61, 4, 161, 177, 94, 0, 149, 53, 129, 7], [35, 38, 112, 225, 94, 8, 32, 0, 158, 95, 141, 70], [16, 68, 143, 228, 215, 8, 78, 0, 168, 136, 26, 50], [138, 13, 228, 60, 22, 34, 26, 0, 39, 49, 230, 59], [55, 8, 151, 196, 20, 211, 52, 0, 59, 108, 15, 111], [11, 234, 46, 115, 22, 91, 94, 0, 76, 201, 77, 34], [107, 88, 0, 47, 222, 133, 74, 0, 194, 218, 17, 94], [49, 138, 105, 77, 194, 130, 36, 0, 228, 100, 130, 90], [122, 97, 94, 61, 223, 43, 2, 0, 60, 141, 153, 94]]"
20241111_173424,5,8,July,heatmap,highest,1,School [1],110,110,14.42,Correct,"[[14, 92, 171, 165, 211, 197, 110, 0, 217, 43, 48, 91], [44, 33, 165, 134, 136, 58, 99, 0, 99, 42, 3, 38], [103, 61, 16, 113, 102, 10, 45, 0, 43, 137, 234, 18], [90, 200, 103, 58, 108, 119, 93, 0, 33, 24, 201, 110], [89, 98, 44, 228, 224, 186, 70, 0, 226, 75, 171, 84], [136, 48, 37, 75, 121, 24, 25, 0, 93, 161, 20, 70], [29, 151, 26, 74, 53, 61, 24, 0, 44, 48, 38, 5], [137, 96, 183, 160, 52, 131, 78, 0, 164, 147, 149, 11], [27, 151, 164, 177, 116, 59, 39, 0, 230, 56, 95, 29], [125, 163, 25, 143, 54, 194, 84, 0, 209, 166, 107, 91]]"
20241111_173424,5,9,May,heatmap,lowest,10,School [10],2,2,8.98,Correct,"[[150, 21, 235, 216, 88, 29, 76, 0, 70, 217, 165, 34], [151, 117, 162, 33, 170, 15, 64, 0, 16, 62, 40, 109], [57, 30, 164, 29, 107, 205, 70, 0, 187, 145, 77, 0], [173, 52, 54, 145, 16, 139, 41, 0, 204, 0, 174, 78], [68, 193, 114, 217, 54, 163, 109, 0, 120, 226, 99, 77], [220, 37, 78, 134, 113, 88, 2, 0, 125, 84, 209, 49], [102, 102, 142, 6, 8, 149, 16, 0, 199, 176, 135, 88], [167, 80, 21, 13, 151, 56, 25, 0, 206, 98, 218, 88], [6, 180, 112, 204, 189, 112, 115, 0, 122, 202, 122, 23], [61, 197, 210, 200, 2, 179, 87, 0, 0, 206, 200, 65]]"
20241111_173424,5,10,February,heatmap,lowest,3,School [3],14,14,7.78,Correct,"[[152, 40, 68, 113, 228, 139, 94, 0, 79, 111, 179, 59], [200, 74, 9, 116, 197, 3, 106, 0, 145, 193, 33, 114], [178, 14, 214, 222, 202, 27, 98, 0, 114, 21, 71, 100], [115, 59, 119, 180, 68, 229, 46, 0, 85, 207, 63, 117], [200, 221, 23, 4, 94, 61, 107, 0, 156, 84, 96, 56], [159, 62, 217, 81, 177, 11, 81, 0, 181, 12, 83, 80], [107, 198, 160, 81, 209, 13, 20, 0, 127, 138, 170, 90], [153, 226, 100, 33, 88, 8, 1, 0, 161, 54, 53, 0], [229, 66, 181, 11, 159, 148, 48, 0, 19, 214, 151, 21], [87, 81, 176, 204, 53, 22, 97, 0, 155, 74, 207, 70]]"
20241111_174752,6,1,July,heatmap,lowest,3,School [2],5,82,15.46,Wrong,"[[224, 117, 201, 236, 131, 160, 52, 0, 169, 141, 150, 49], [200, 113, 177, 62, 224, 154, 5, 0, 196, 71, 64, 36], [55, 12, 33, 223, 19, 0, 82, 0, 221, 93, 209, 47], [162, 123, 163, 172, 117, 234, 63, 0, 145, 136, 5, 39], [6, 187, 206, 97, 21, 28, 82, 0, 117, 232, 47, 105], [66, 87, 3, 23, 6, 109, 49, 0, 197, 186, 196, 24], [83, 84, 192, 169, 40, 151, 19, 0, 233, 131, 146, 115], [206, 78, 45, 90, 106, 138, 60, 0, 229, 183, 167, 74], [58, 89, 107, 49, 4, 184, 72, 0, 119, 222, 103, 4], [105, 122, 12, 20, 135, 9, 25, 0, 163, 19, 117, 117]]"
20241111_174752,6,2,May,heatmap,highest,5,School [5],235,235,10.99,Correct,"[[37, 53, 129, 174, 47, 103, 109, 0, 89, 188, 235, 5], [3, 72, 165, 228, 175, 28, 27, 0, 215, 191, 18, 60], [105, 50, 209, 233, 92, 181, 9, 0, 122, 150, 193, 22], [34, 29, 13, 193, 136, 201, 42, 0, 79, 177, 88, 67], [184, 202, 59, 198, 235, 57, 82, 0, 7, 46, 148, 59], [181, 120, 33, 89, 126, 98, 85, 0, 133, 169, 56, 76], [79, 183, 117, 75, 132, 1, 20, 0, 37, 174, 116, 4], [201, 174, 230, 207, 233, 7, 70, 0, 232, 177, 16, 63], [89, 158, 92, 220, 156, 232, 64, 0, 82, 230, 128, 55], [116, 223, 134, 39, 23, 153, 103, 0, 49, 179, 175, 37]]"
20241111_174752,6,3,June,heatmap,lowest,9,School [9],3,3,8.25,Correct,"[[8, 125, 10, 63, 172, 61, 5, 0, 193, 147, 48, 29], [67, 204, 157, 199, 44, 132, 5, 0, 60, 192, 65, 116], [140, 222, 196, 25, 67, 46, 15, 0, 13, 147, 163, 58], [128, 62, 96, 158, 175, 213, 29, 0, 170, 139, 161, 57], [116, 181, 184, 207, 82, 222, 104, 0, 197, 188, 185, 115], [86, 32, 32, 66, 0, 5, 19, 0, 120, 234, 213, 4], [143, 173, 126, 216, 174, 66, 57, 0, 26, 51, 0, 100], [177, 145, 18, 146, 103, 14, 60, 0, 27, 185, 195, 24], [146, 193, 51, 7, 122, 3, 71, 0, 16, 211, 141, 72], [19, 181, 30, 55, 4, 158, 26, 0, 108, 216, 165, 70]]"
20241111_174752,6,4,November,heatmap,highest,9,School [9],232,232,4.78,Correct,"[[63, 216, 118, 145, 173, 0, 65, 0, 51, 124, 223, 77], [39, 215, 137, 177, 111, 51, 8, 0, 202, 207, 217, 55], [48, 160, 18, 196, 234, 185, 30, 0, 89, 183, 36, 68], [8, 186, 64, 44, 125, 6, 59, 0, 101, 64, 172, 40], [221, 140, 88, 140, 66, 230, 38, 0, 49, 215, 26, 93], [214, 216, 92, 100, 194, 39, 101, 0, 2, 7, 144, 30], [192, 99, 155, 3, 138, 180, 83, 0, 46, 82, 151, 37], [125, 176, 65, 137, 234, 34, 100, 0, 29, 171, 28, 23], [154, 79, 120, 182, 31, 222, 112, 0, 187, 193, 232, 102], [91, 229, 107, 101, 106, 177, 47, 0, 82, 212, 33, 72]]"
20241111_174752,6,5,October,heatmap,highest,2,School [2],229,229,4.55,Correct,"[[7, 68, 50, 49, 85, 236, 38, 0, 175, 6, 178, 45], [25, 190, 233, 205, 68, 46, 57, 0, 118, 229, 150, 51], [188, 98, 191, 230, 109, 194, 38, 0, 39, 87, 193, 65], [214, 103, 228, 136, 110, 6, 114, 0, 1, 104, 8, 67], [75, 74, 219, 148, 190, 27, 99, 0, 36, 48, 141, 15], [163, 235, 180, 70, 85, 74, 91, 0, 115, 223, 119, 100], [132, 110, 30, 106, 179, 83, 20, 0, 41, 216, 90, 18], [113, 176, 53, 213, 75, 121, 60, 0, 168, 14, 135, 79], [78, 106, 220, 156, 95, 165, 103, 0, 24, 27, 161, 34], [156, 59, 141, 119, 117, 78, 31, 0, 193, 212, 140, 89]]"
20241111_174752,6,6,January,heatmap,lowest,8,School [8],18,18,6.76,Correct,"[[212, 19, 43, 31, 212, 81, 6, 0, 165, 184, 177, 60], [66, 15, 78, 209, 174, 46, 16, 0, 176, 38, 6, 47], [113, 156, 53, 213, 209, 43, 74, 0, 199, 89, 105, 31], [32, 141, 221, 70, 175, 194, 113, 0, 7, 141, 8, 70], [57, 82, 177, 235, 51, 235, 64, 0, 28, 125, 39, 53], [71, 85, 150, 95, 11, 53, 96, 0, 200, 93, 27, 81], [161, 97, 0, 91, 194, 225, 29, 0, 180, 23, 232, 108], [18, 225, 159, 73, 70, 189, 106, 0, 65, 78, 58, 21], [67, 27, 126, 4, 93, 120, 82, 0, 175, 113, 108, 71], [42, 127, 2, 35, 61, 17, 83, 0, 17, 147, 214, 28]]"
20241111_174752,6,7,March,heatmap,lowest,5,School [3],7,217,11.21,Wrong,"[[53, 76, 12, 4, 197, 133, 72, 0, 25, 101, 182, 79], [139, 221, 163, 130, 75, 16, 68, 0, 222, 206, 133, 2], [119, 218, 7, 31, 72, 58, 39, 0, 179, 76, 146, 71], [232, 161, 65, 224, 178, 84, 2, 0, 129, 29, 173, 48], [12, 133, 217, 113, 156, 179, 4, 0, 229, 234, 115, 48], [221, 50, 189, 158, 141, 95, 111, 0, 188, 170, 166, 90], [72, 190, 200, 59, 186, 213, 99, 0, 31, 56, 38, 53], [144, 215, 57, 161, 152, 135, 41, 0, 222, 216, 52, 99], [224, 216, 175, 38, 92, 146, 37, 0, 174, 98, 51, 72], [187, 198, 84, 58, 33, 24, 99, 0, 167, 201, 70, 8]]"
20241111_174752,6,8,December,heatmap,highest,7,"School [1, 5]",108,20,14.22,Wrong,"[[119, 150, 73, 104, 235, 51, 103, 0, 175, 174, 172, 108], [185, 63, 201, 25, 168, 223, 48, 0, 103, 15, 159, 90], [41, 172, 2, 82, 27, 37, 20, 0, 223, 94, 86, 68], [214, 92, 117, 42, 196, 4, 73, 0, 151, 32, 139, 67], [141, 99, 165, 211, 58, 76, 92, 0, 56, 83, 147, 108], [198, 153, 181, 84, 153, 56, 17, 0, 36, 218, 200, 33], [93, 48, 49, 185, 185, 107, 41, 0, 112, 80, 17, 20], [228, 18, 150, 79, 32, 227, 98, 0, 101, 110, 11, 52], [26, 213, 189, 37, 142, 74, 117, 0, 173, 143, 119, 27], [85, 27, 185, 11, 40, 51, 117, 0, 71, 52, 47, 80]]"
20241111_174752,6,9,January,heatmap,lowest,8,School [2],4,229,7.26,Wrong,"[[218, 50, 185, 7, 36, 170, 118, 0, 190, 25, 122, 83], [4, 224, 54, 31, 51, 157, 70, 0, 49, 185, 166, 87], [192, 141, 19, 201, 97, 54, 33, 0, 72, 109, 183, 16], [25, 83, 97, 167, 63, 12, 74, 0, 185, 221, 122, 116], [165, 167, 0, 58, 191, 89, 97, 0, 32, 219, 4, 3], [32, 29, 84, 216, 105, 18, 81, 0, 149, 96, 236, 109], [31, 186, 32, 5, 162, 183, 107, 0, 213, 75, 98, 72], [229, 229, 89, 28, 74, 138, 102, 0, 21, 21, 231, 76], [34, 70, 176, 118, 91, 0, 3, 0, 53, 170, 151, 108], [224, 190, 63, 146, 103, 31, 35, 0, 6, 233, 42, 25]]"
20241111_174752,6,10,December,heatmap,lowest,4,School [4],20,20,10.88,Correct,"[[137, 164, 95, 64, 206, 31, 0, 0, 42, 137, 111, 90], [13, 108, 148, 168, 233, 88, 40, 0, 118, 229, 152, 63], [214, 62, 24, 85, 190, 149, 8, 0, 150, 16, 117, 86], [81, 106, 173, 114, 51, 116, 3, 0, 9, 111, 187, 20], [25, 91, 190, 210, 8, 144, 82, 0, 89, 141, 168, 27], [175, 213, 98, 122, 92, 144, 111, 0, 87, 126, 216, 97], [228, 199, 118, 67, 184, 128, 4, 0, 115, 96, 144, 88], [231, 133, 179, 214, 112, 164, 113, 0, 113, 186, 135, 21], [218, 99, 58, 61, 114, 94, 76, 0, 22, 234, 20, 33], [67, 140, 50, 215, 5, 172, 98, 0, 229, 155, 6, 57]]"
20241111_174752,6,1,April,scatter,lowest,7,School [7],8,8,8.66,Correct,"[[14, 71, 39, 69, 61, 179, 7, 0, 124, 36, 153, 1], [37, 155, 81, 200, 172, 56, 115, 0, 73, 22, 173, 65], [45, 112, 56, 229, 164, 199, 94, 0, 209, 84, 49, 33], [2, 6, 126, 71, 85, 145, 48, 0, 33, 130, 133, 79], [138, 207, 194, 20, 232, 4, 4, 0, 121, 225, 69, 110], [116, 0, 125, 51, 163, 92, 107, 0, 137, 39, 168, 108], [130, 129, 133, 8, 3, 97, 100, 0, 164, 82, 62, 14], [4, 79, 143, 105, 16, 76, 80, 0, 150, 232, 69, 27], [18, 47, 13, 45, 84, 159, 34, 0, 119, 217, 92, 115], [207, 176, 98, 202, 72, 29, 74, 0, 184, 63, 81, 10]]"
20241111_174752,6,2,July,scatter,lowest,9,School [9],3,3,13.92,Correct,"[[223, 6, 199, 107, 221, 113, 96, 0, 146, 191, 109, 64], [69, 30, 168, 170, 174, 152, 94, 0, 25, 87, 46, 55], [103, 19, 83, 170, 223, 181, 7, 0, 1, 101, 136, 39], [81, 51, 135, 211, 92, 5, 92, 0, 215, 236, 56, 103], [59, 134, 98, 57, 114, 17, 85, 0, 57, 32, 45, 67], [138, 74, 40, 134, 151, 196, 82, 0, 130, 90, 93, 47], [194, 36, 2, 53, 145, 77, 71, 0, 204, 2, 59, 48], [47, 186, 222, 213, 88, 38, 84, 0, 58, 148, 187, 20], [46, 206, 232, 26, 218, 51, 3, 0, 183, 157, 168, 40], [42, 118, 217, 101, 216, 122, 12, 0, 58, 176, 169, 29]]"
20241111_174752,6,3,May,scatter,highest,8,School [8],231,231,8.8,Correct,"[[181, 32, 35, 86, 114, 73, 57, 0, 113, 5, 95, 48], [34, 221, 168, 180, 46, 74, 4, 0, 163, 18, 224, 104], [191, 155, 146, 132, 108, 231, 108, 0, 144, 215, 175, 4], [187, 98, 165, 189, 95, 190, 68, 0, 114, 67, 186, 55], [31, 210, 34, 101, 72, 88, 42, 0, 176, 66, 35, 84], [179, 105, 156, 204, 52, 218, 94, 0, 148, 162, 95, 95], [53, 209, 218, 27, 45, 69, 79, 0, 60, 199, 77, 6], [130, 107, 50, 217, 231, 183, 92, 0, 167, 102, 102, 54], [156, 154, 194, 132, 166, 45, 94, 0, 99, 37, 175, 57], [218, 74, 209, 43, 197, 23, 76, 0, 123, 178, 111, 109]]"
20241111_174752,6,4,February,scatter,highest,9,School [9],196,196,10.98,Correct,"[[163, 87, 191, 71, 235, 126, 61, 0, 42, 151, 43, 67], [140, 160, 167, 210, 231, 229, 62, 0, 18, 226, 168, 108], [212, 97, 228, 149, 225, 97, 42, 0, 22, 153, 196, 53], [151, 45, 212, 109, 230, 145, 3, 0, 90, 194, 28, 2], [200, 145, 169, 39, 90, 29, 10, 0, 149, 23, 88, 12], [98, 44, 102, 194, 108, 136, 18, 0, 209, 28, 93, 93], [136, 125, 217, 8, 146, 82, 30, 0, 193, 34, 6, 1], [144, 182, 186, 135, 103, 53, 51, 0, 90, 83, 136, 21], [218, 196, 98, 148, 202, 31, 39, 0, 79, 43, 172, 84], [115, 171, 221, 152, 135, 16, 94, 0, 176, 154, 131, 80]]"
20241111_174752,6,5,September,scatter,highest,8,School [8],235,235,16.73,Correct,"[[21, 115, 126, 205, 162, 34, 35, 0, 137, 66, 198, 17], [66, 73, 211, 4, 13, 31, 78, 0, 103, 128, 103, 59], [91, 34, 126, 130, 231, 46, 9, 0, 4, 149, 222, 11], [123, 18, 83, 117, 236, 220, 61, 0, 37, 73, 70, 102], [16, 132, 42, 216, 17, 57, 80, 0, 177, 181, 100, 109], [148, 44, 192, 96, 122, 75, 86, 0, 84, 166, 168, 60], [182, 130, 178, 94, 222, 135, 89, 0, 23, 3, 154, 72], [153, 12, 1, 43, 155, 187, 82, 0, 235, 152, 104, 50], [76, 134, 160, 210, 10, 31, 110, 0, 233, 59, 12, 52], [79, 216, 19, 0, 82, 16, 61, 0, 26, 224, 216, 118]]"
20241111_174752,6,6,May,scatter,highest,10,School [10],233,233,5.61,Correct,"[[221, 7, 18, 202, 40, 174, 23, 0, 107, 138, 57, 74], [46, 105, 49, 93, 49, 160, 93, 0, 178, 128, 143, 7], [69, 236, 200, 121, 116, 90, 80, 0, 173, 195, 58, 69], [106, 45, 205, 132, 136, 44, 118, 0, 159, 226, 137, 53], [7, 125, 162, 134, 9, 116, 115, 0, 101, 81, 226, 47], [172, 80, 97, 73, 166, 134, 21, 0, 169, 131, 148, 44], [173, 181, 88, 197, 7, 148, 8, 0, 167, 145, 5, 104], [105, 144, 142, 5, 34, 181, 45, 0, 214, 141, 216, 116], [87, 63, 232, 114, 159, 57, 98, 0, 206, 100, 124, 10], [236, 17, 224, 151, 233, 119, 20, 0, 121, 75, 76, 26]]"
20241111_174752,6,7,August,scatter,lowest,7,"School [1, 2, 3, 4, 5, 6, 7, 8, 9, 10]",0,0,14.67,Correct,"[[108, 174, 1, 144, 129, 159, 101, 0, 124, 5, 13, 50], [35, 211, 71, 93, 224, 106, 100, 0, 32, 235, 235, 61], [15, 83, 141, 228, 159, 236, 45, 0, 49, 96, 20, 68], [188, 223, 95, 63, 200, 134, 19, 0, 53, 231, 196, 76], [99, 22, 80, 206, 55, 110, 0, 0, 235, 226, 134, 37], [183, 153, 117, 143, 48, 6, 109, 0, 95, 26, 202, 54], [209, 58, 6, 178, 54, 5, 53, 0, 64, 17, 119, 47], [159, 62, 114, 130, 166, 33, 112, 0, 34, 75, 40, 72], [41, 151, 23, 64, 111, 134, 31, 0, 182, 54, 68, 111], [4, 11, 59, 135, 228, 124, 31, 0, 47, 92, 185, 88]]"
20241111_174752,6,8,September,scatter,highest,8,School [8],208,208,8.88,Correct,"[[152, 187, 236, 103, 150, 26, 114, 0, 106, 84, 169, 109], [46, 123, 120, 143, 135, 39, 59, 0, 188, 69, 155, 60], [66, 186, 39, 164, 16, 187, 77, 0, 199, 219, 30, 17], [64, 187, 121, 52, 124, 112, 13, 0, 22, 22, 117, 107], [27, 145, 166, 220, 149, 90, 73, 0, 161, 131, 31, 117], [5, 236, 200, 233, 226, 178, 91, 0, 10, 220, 77, 77], [194, 227, 132, 205, 23, 131, 80, 0, 153, 213, 63, 62], [29, 170, 18, 172, 59, 198, 114, 0, 208, 126, 164, 28], [119, 66, 43, 209, 28, 49, 43, 0, 203, 22, 135, 73], [26, 231, 220, 132, 213, 33, 5, 0, 160, 34, 119, 67]]"
20241111_174752,6,9,July,scatter,highest,4,School [4],110,110,8.86,Correct,"[[174, 86, 115, 147, 55, 222, 7, 0, 50, 211, 143, 65], [29, 203, 140, 75, 68, 177, 79, 0, 175, 74, 16, 72], [199, 58, 115, 207, 108, 154, 108, 0, 53, 113, 26, 22], [201, 174, 179, 79, 202, 112, 110, 0, 173, 165, 44, 113], [25, 168, 15, 142, 111, 172, 21, 0, 83, 205, 14, 68], [18, 16, 208, 161, 91, 105, 60, 0, 226, 178, 38, 51], [20, 40, 123, 3, 139, 48, 87, 0, 180, 135, 36, 103], [157, 183, 144, 156, 182, 151, 100, 0, 170, 108, 154, 116], [168, 190, 125, 34, 113, 211, 105, 0, 185, 201, 129, 51], [221, 128, 199, 113, 179, 46, 4, 0, 183, 158, 93, 12]]"
20241111_174752,6,10,May,scatter,lowest,8,School [8],29,29,8.29,Correct,"[[140, 95, 44, 220, 38, 44, 61, 0, 160, 193, 65, 15], [11, 97, 35, 21, 60, 128, 115, 0, 80, 166, 179, 2], [11, 87, 137, 139, 123, 79, 92, 0, 41, 78, 43, 90], [17, 223, 50, 186, 52, 80, 59, 0, 227, 197, 63, 105], [146, 131, 99, 69, 54, 52, 107, 0, 75, 68, 4, 100], [82, 225, 20, 206, 85, 2, 40, 0, 199, 136, 70, 60], [67, 46, 2, 80, 107, 68, 30, 0, 231, 182, 234, 108], [46, 94, 211, 83, 29, 96, 91, 0, 50, 108, 195, 49], [125, 58, 32, 68, 85, 201, 51, 0, 14, 103, 180, 70], [205, 12, 84, 86, 209, 213, 50, 0, 112, 76, 166, 65]]"
20241111_175523,7,1,October,heatmap,highest,4,School [4],179,179,7.17,Correct,"[[181, 54, 47, 140, 114, 16, 60, 0, 129, 178, 48, 18], [201, 108, 145, 167, 194, 220, 114, 0, 59, 82, 82, 13], [200, 223, 73, 151, 12, 159, 27, 0, 139, 168, 179, 46], [121, 200, 36, 213, 89, 118, 68, 0, 74, 179, 104, 92], [218, 175, 9, 220, 6, 62, 28, 0, 99, 25, 25, 57], [65, 110, 204, 122, 114, 23, 28, 0, 178, 99, 98, 11], [211, 36, 206, 154, 96, 126, 107, 0, 83, 57, 228, 66], [171, 23, 233, 83, 233, 196, 66, 0, 56, 106, 180, 76], [77, 22, 75, 145, 169, 146, 19, 0, 103, 18, 194, 10], [215, 217, 43, 48, 86, 10, 103, 0, 216, 146, 162, 12]]"
20241111_175523,7,2,November,heatmap,highest,3,School [3],203,203,8.02,Correct,"[[21, 1, 129, 24, 220, 115, 36, 0, 148, 68, 42, 100], [31, 137, 149, 85, 1, 129, 36, 0, 83, 185, 50, 104], [11, 154, 171, 189, 31, 133, 6, 0, 158, 143, 203, 0], [113, 11, 196, 231, 38, 103, 109, 0, 16, 33, 49, 104], [190, 196, 193, 135, 131, 225, 100, 0, 29, 219, 34, 3], [192, 163, 209, 58, 184, 18, 58, 0, 211, 32, 165, 71], [233, 16, 79, 122, 215, 187, 31, 0, 128, 97, 138, 80], [226, 150, 221, 14, 236, 64, 94, 0, 159, 128, 10, 69], [63, 90, 58, 190, 118, 46, 6, 0, 143, 216, 93, 5], [45, 47, 128, 90, 80, 48, 118, 0, 107, 39, 99, 64]]"
20241111_175523,7,3,August,heatmap,lowest,3,"School [1, 2, 3, 4, 5, 6, 7, 8, 9, 10]",0,0,14.54,Correct,"[[103, 15, 98, 79, 125, 4, 114, 0, 226, 144, 122, 104], [78, 131, 50, 233, 110, 77, 5, 0, 221, 10, 114, 81], [222, 113, 162, 161, 232, 18, 25, 0, 26, 182, 110, 71], [73, 144, 226, 104, 137, 27, 18, 0, 71, 128, 177, 38], [124, 198, 196, 48, 71, 203, 25, 0, 126, 115, 112, 56], [219, 183, 3, 208, 73, 224, 11, 0, 160, 29, 15, 18], [11, 193, 55, 30, 205, 63, 100, 0, 192, 49, 221, 74], [48, 96, 102, 60, 199, 164, 29, 0, 223, 58, 208, 76], [76, 41, 37, 181, 181, 119, 37, 0, 83, 233, 235, 72], [104, 197, 173, 75, 153, 231, 13, 0, 46, 89, 214, 57]]"
20241111_175523,7,4,May,heatmap,lowest,1,School [1],12,12,5.33,Correct,"[[160, 121, 60, 121, 12, 121, 78, 0, 159, 161, 85, 104], [128, 175, 36, 6, 227, 228, 73, 0, 96, 138, 104, 46], [133, 53, 120, 122, 209, 124, 15, 0, 39, 151, 29, 18], [36, 202, 27, 24, 13, 117, 31, 0, 161, 23, 175, 94], [74, 61, 42, 89, 92, 167, 23, 0, 84, 40, 173, 76], [194, 153, 5, 66, 58, 28, 38, 0, 29, 134, 135, 80], [97, 222, 200, 203, 91, 168, 101, 0, 66, 39, 212, 93], [74, 119, 87, 122, 214, 149, 98, 0, 203, 161, 67, 117], [217, 155, 38, 171, 66, 30, 31, 0, 84, 194, 50, 83], [177, 181, 23, 45, 130, 7, 97, 0, 178, 207, 50, 38]]"
20241111_175523,7,5,December,heatmap,lowest,3,School [9],24,107,13.22,Wrong,"[[63, 118, 64, 174, 131, 18, 7, 0, 82, 164, 147, 108], [139, 49, 199, 78, 60, 134, 11, 0, 102, 210, 142, 77], [196, 216, 127, 130, 135, 132, 21, 0, 137, 143, 110, 107], [82, 11, 17, 179, 4, 146, 110, 0, 137, 74, 57, 59], [36, 99, 140, 21, 6, 136, 73, 0, 122, 63, 124, 82], [11, 32, 19, 186, 221, 72, 27, 0, 22, 122, 64, 29], [11, 168, 54, 54, 87, 210, 65, 0, 156, 33, 158, 32], [232, 205, 170, 202, 212, 27, 17, 0, 39, 160, 183, 105], [232, 17, 134, 236, 189, 49, 91, 0, 62, 174, 163, 24], [79, 202, 149, 147, 201, 104, 109, 0, 192, 115, 19, 89]]"
20241111_175523,7,6,November,heatmap,highest,7,School [4],141,34,9.28,Wrong,"[[37, 189, 107, 214, 54, 220, 59, 0, 109, 114, 61, 16], [223, 133, 179, 126, 158, 229, 16, 0, 55, 163, 108, 13], [65, 166, 117, 144, 204, 152, 76, 0, 164, 175, 28, 9], [142, 105, 89, 149, 155, 216, 84, 0, 228, 207, 141, 64], [171, 14, 73, 81, 138, 20, 28, 0, 154, 16, 139, 118], [205, 68, 154, 124, 106, 21, 25, 0, 16, 74, 57, 89], [67, 74, 162, 173, 145, 142, 34, 0, 225, 163, 34, 68], [166, 158, 217, 57, 183, 96, 87, 0, 126, 196, 45, 112], [140, 220, 236, 21, 49, 162, 36, 0, 214, 184, 100, 78], [193, 90, 168, 107, 100, 134, 63, 0, 233, 193, 105, 16]]"
20241111_175523,7,7,November,heatmap,highest,1,School [1],219,219,8.27,Correct,"[[187, 10, 183, 231, 62, 19, 33, 0, 102, 10, 219, 4], [194, 184, 227, 0, 96, 97, 47, 0, 100, 195, 132, 58], [215, 215, 224, 110, 220, 60, 98, 0, 204, 61, 146, 109], [10, 224, 176, 31, 84, 68, 50, 0, 113, 220, 202, 93], [208, 2, 115, 2, 108, 67, 13, 0, 73, 235, 167, 45], [5, 83, 24, 70, 34, 210, 100, 0, 37, 84, 114, 107], [9, 153, 72, 47, 94, 181, 10, 0, 185, 204, 203, 27], [143, 123, 150, 44, 133, 120, 93, 0, 54, 36, 32, 27], [132, 225, 174, 185, 97, 137, 28, 0, 208, 0, 203, 63], [139, 60, 6, 54, 105, 80, 36, 0, 156, 60, 211, 54]]"
20241111_175523,7,8,April,heatmap,lowest,7,School [7],13,13,10.77,Correct,"[[229, 69, 220, 121, 204, 51, 94, 0, 202, 43, 218, 107], [30, 114, 213, 105, 174, 44, 33, 0, 219, 82, 48, 10], [84, 48, 115, 213, 72, 192, 97, 0, 15, 50, 63, 23], [160, 65, 23, 236, 202, 203, 7, 0, 180, 215, 60, 85], [166, 219, 186, 197, 50, 4, 8, 0, 183, 1, 76, 18], [95, 153, 212, 71, 207, 33, 112, 0, 89, 222, 17, 95], [156, 79, 56, 13, 178, 143, 11, 0, 53, 28, 6, 57], [37, 134, 154, 57, 234, 167, 11, 0, 236, 92, 198, 35], [167, 60, 111, 171, 224, 11, 84, 0, 63, 232, 44, 4], [10, 79, 205, 43, 82, 11, 18, 0, 70, 41, 208, 38]]"
20241111_175523,7,9,January,heatmap,highest,7,School [7],213,213,11.43,Correct,"[[151, 179, 80, 118, 156, 63, 110, 0, 63, 184, 144, 65], [115, 64, 111, 185, 111, 151, 55, 0, 121, 155, 202, 109], [7, 27, 101, 150, 64, 205, 34, 0, 56, 0, 17, 109], [193, 172, 139, 206, 109, 26, 101, 0, 213, 103, 220, 18], [196, 43, 138, 171, 114, 220, 84, 0, 65, 55, 158, 110], [89, 177, 143, 58, 21, 139, 114, 0, 26, 159, 104, 1], [213, 137, 43, 140, 27, 76, 99, 0, 162, 50, 219, 78], [162, 112, 177, 83, 197, 170, 20, 0, 14, 169, 141, 53], [46, 86, 129, 130, 67, 14, 103, 0, 116, 171, 185, 9], [82, 49, 185, 23, 74, 133, 34, 0, 3, 72, 76, 29]]"
20241111_175523,7,10,December,heatmap,lowest,10,School [8],15,21,7.11,Wrong,"[[222, 33, 71, 113, 50, 56, 51, 0, 140, 4, 121, 25], [200, 224, 222, 34, 14, 16, 1, 0, 176, 131, 42, 97], [61, 225, 43, 217, 107, 114, 11, 0, 168, 94, 128, 62], [141, 117, 148, 44, 195, 14, 75, 0, 156, 56, 90, 99], [168, 105, 100, 58, 205, 185, 10, 0, 15, 43, 3, 95], [60, 98, 223, 54, 12, 227, 14, 0, 70, 21, 1, 100], [194, 21, 45, 87, 55, 11, 46, 0, 116, 67, 155, 56], [206, 121, 17, 135, 188, 133, 79, 0, 143, 53, 141, 15], [70, 67, 95, 212, 93, 63, 91, 0, 0, 97, 182, 71], [31, 80, 216, 39, 31, 200, 106, 0, 229, 168, 81, 21]]"
20241111_175523,7,1,October,scatter,highest,2,School [2],228,228,6.98,Correct,"[[23, 229, 71, 16, 127, 107, 4, 0, 69, 115, 36, 75], [127, 121, 65, 158, 64, 65, 18, 0, 139, 228, 116, 93], [229, 161, 197, 228, 139, 27, 75, 0, 134, 168, 12, 4], [200, 68, 34, 234, 32, 115, 106, 0, 193, 28, 114, 108], [9, 24, 69, 45, 69, 205, 53, 0, 162, 65, 9, 83], [174, 123, 154, 124, 162, 73, 5, 0, 193, 141, 138, 17], [182, 107, 158, 7, 6, 159, 82, 0, 187, 51, 81, 65], [137, 211, 188, 130, 23, 9, 44, 0, 14, 159, 117, 71], [45, 229, 27, 122, 8, 230, 2, 0, 11, 176, 165, 76], [63, 153, 62, 99, 217, 183, 43, 0, 74, 5, 0, 110]]"
20241111_175523,7,2,April,scatter,lowest,5,School [5],20,20,8.44,Correct,"[[15, 235, 119, 161, 90, 115, 88, 0, 188, 30, 126, 110], [124, 168, 125, 27, 7, 189, 111, 0, 97, 14, 207, 36], [162, 125, 166, 77, 219, 197, 26, 0, 123, 236, 59, 100], [33, 36, 129, 194, 206, 67, 42, 0, 210, 100, 212, 106], [185, 144, 90, 20, 41, 25, 63, 0, 151, 110, 119, 16], [12, 4, 49, 119, 113, 169, 5, 0, 18, 120, 42, 5], [202, 110, 27, 187, 143, 154, 60, 0, 9, 29, 185, 51], [139, 107, 92, 101, 28, 86, 56, 0, 159, 140, 96, 22], [158, 80, 102, 161, 128, 201, 76, 0, 235, 103, 0, 39], [54, 138, 3, 55, 160, 47, 113, 0, 115, 221, 99, 25]]"
20241111_175523,7,3,February,scatter,highest,2,School [2],206,206,4.91,Correct,"[[158, 107, 144, 193, 28, 135, 98, 0, 212, 131, 217, 104], [137, 206, 132, 119, 29, 159, 61, 0, 17, 114, 59, 56], [100, 152, 87, 231, 194, 111, 68, 0, 223, 30, 115, 43], [147, 172, 146, 54, 210, 139, 103, 0, 77, 48, 163, 14], [108, 194, 165, 3, 125, 85, 57, 0, 235, 56, 34, 6], [100, 159, 175, 108, 38, 158, 19, 0, 127, 0, 227, 93], [43, 124, 191, 146, 99, 75, 93, 0, 13, 187, 55, 64], [111, 64, 123, 33, 161, 47, 25, 0, 225, 116, 62, 46], [179, 125, 1, 125, 226, 43, 44, 0, 137, 162, 20, 68], [38, 84, 169, 46, 219, 177, 39, 0, 94, 230, 186, 101]]"
20241111_175523,7,4,April,scatter,lowest,4,School [4],5,5,11.25,Correct,"[[91, 193, 128, 224, 200, 79, 97, 0, 87, 230, 53, 21], [28, 4, 197, 63, 227, 19, 24, 0, 186, 176, 219, 16], [57, 142, 14, 27, 45, 191, 59, 0, 40, 150, 23, 103], [83, 141, 113, 5, 124, 24, 44, 0, 99, 162, 118, 112], [206, 167, 206, 139, 204, 1, 64, 0, 226, 49, 35, 4], [67, 32, 176, 212, 230, 66, 116, 0, 228, 125, 139, 75], [138, 168, 66, 53, 21, 162, 91, 0, 72, 180, 90, 40], [231, 236, 129, 126, 145, 62, 87, 0, 205, 89, 84, 85], [213, 129, 52, 205, 42, 21, 11, 0, 213, 197, 41, 117], [102, 38, 187, 15, 124, 163, 101, 0, 103, 4, 69, 47]]"
20241111_175523,7,5,June,scatter,highest,9,School [9],227,227,11.33,Correct,"[[185, 110, 215, 35, 19, 9, 114, 0, 172, 190, 150, 91], [167, 23, 41, 38, 25, 16, 62, 0, 121, 143, 212, 49], [1, 155, 149, 57, 47, 7, 34, 0, 211, 47, 173, 86], [219, 98, 60, 30, 172, 73, 105, 0, 195, 172, 186, 8], [234, 157, 152, 45, 108, 121, 13, 0, 27, 195, 15, 60], [170, 101, 8, 19, 31, 199, 95, 0, 80, 35, 34, 105], [220, 1, 13, 69, 42, 55, 90, 0, 31, 129, 226, 30], [141, 81, 105, 204, 219, 25, 89, 0, 102, 168, 222, 50], [178, 18, 213, 63, 147, 227, 69, 0, 24, 124, 143, 71], [24, 161, 169, 85, 74, 130, 21, 0, 1, 121, 209, 112]]"
20241111_175523,7,6,August,scatter,lowest,4,"School [1, 2, 3, 4, 5, 6, 7, 8, 9, 10]",0,0,25.92,Correct,"[[158, 14, 96, 28, 195, 103, 5, 0, 18, 225, 34, 32], [59, 204, 197, 76, 26, 221, 71, 0, 155, 185, 105, 11], [6, 203, 146, 185, 112, 29, 3, 0, 23, 12, 105, 6], [32, 84, 47, 203, 114, 40, 98, 0, 25, 59, 76, 110], [148, 88, 105, 73, 167, 153, 7, 0, 165, 155, 38, 118], [29, 60, 212, 201, 99, 81, 115, 0, 111, 214, 13, 11], [94, 223, 96, 11, 176, 177, 40, 0, 117, 151, 194, 99], [176, 48, 157, 39, 111, 3, 56, 0, 129, 49, 206, 2], [157, 63, 83, 111, 205, 84, 87, 0, 130, 87, 210, 108], [94, 233, 146, 99, 89, 211, 6, 0, 200, 132, 53, 100]]"
20241111_175523,7,7,February,scatter,highest,2,School [2],227,227,10.22,Correct,"[[9, 184, 174, 101, 158, 108, 118, 0, 228, 217, 10, 57], [69, 227, 110, 107, 170, 123, 98, 0, 231, 168, 37, 114], [101, 2, 127, 39, 120, 141, 98, 0, 141, 42, 2, 83], [165, 208, 15, 236, 130, 78, 110, 0, 115, 230, 21, 68], [15, 146, 52, 129, 142, 78, 45, 0, 200, 168, 23, 30], [75, 204, 39, 44, 108, 222, 103, 0, 162, 193, 177, 12], [184, 20, 137, 151, 235, 56, 30, 0, 217, 89, 86, 118], [62, 16, 66, 198, 182, 199, 79, 0, 133, 123, 185, 80], [51, 211, 96, 156, 226, 22, 12, 0, 236, 101, 215, 4], [227, 158, 100, 221, 42, 67, 101, 0, 93, 178, 19, 21]]"
20241111_175523,7,8,October,scatter,lowest,2,School [2],27,27,11.62,Correct,"[[42, 119, 123, 184, 127, 162, 8, 0, 133, 68, 129, 88], [4, 151, 15, 28, 176, 87, 110, 0, 118, 27, 174, 27], [119, 58, 197, 84, 209, 21, 26, 0, 84, 171, 107, 50], [157, 88, 73, 143, 6, 179, 49, 0, 210, 226, 142, 43], [121, 220, 234, 69, 16, 42, 76, 0, 211, 75, 59, 45], [180, 213, 163, 179, 134, 82, 18, 0, 232, 123, 174, 11], [83, 231, 180, 162, 113, 135, 59, 0, 132, 233, 213, 78], [100, 181, 28, 173, 21, 69, 12, 0, 182, 176, 57, 0], [59, 141, 148, 22, 195, 86, 109, 0, 187, 166, 60, 58], [95, 176, 11, 101, 48, 9, 118, 0, 119, 129, 150, 85]]"
20241111_175523,7,9,November,scatter,lowest,2,"School [2, 5]",11,11,12.41,Correct,"[[201, 61, 208, 41, 163, 217, 27, 0, 42, 138, 220, 53], [177, 206, 148, 67, 161, 200, 33, 0, 70, 14, 11, 84], [49, 90, 47, 193, 82, 161, 63, 0, 51, 155, 106, 15], [192, 216, 181, 220, 108, 33, 41, 0, 44, 175, 29, 82], [87, 41, 10, 26, 103, 175, 110, 0, 133, 55, 11, 6], [95, 63, 10, 210, 84, 163, 27, 0, 106, 1, 124, 7], [82, 18, 100, 112, 81, 107, 86, 0, 36, 113, 235, 34], [155, 92, 146, 82, 38, 201, 25, 0, 25, 9, 236, 30], [19, 101, 201, 220, 29, 209, 115, 0, 46, 170, 139, 94], [86, 113, 90, 162, 117, 179, 35, 0, 230, 181, 210, 75]]"
20241111_175523,7,10,November,scatter,lowest,2,School [2],2,2,9.74,Correct,"[[9, 40, 189, 147, 81, 52, 27, 0, 144, 147, 226, 81], [55, 88, 134, 137, 68, 31, 87, 0, 29, 206, 2, 60], [75, 207, 54, 188, 227, 217, 16, 0, 8, 230, 29, 7], [210, 52, 35, 153, 211, 123, 107, 0, 213, 119, 158, 26], [209, 29, 182, 236, 124, 222, 22, 0, 90, 9, 217, 15], [123, 103, 19, 163, 167, 211, 87, 0, 146, 147, 207, 88], [134, 190, 14, 41, 151, 161, 64, 0, 158, 86, 235, 64], [122, 91, 105, 59, 141, 72, 77, 0, 68, 112, 169, 98], [139, 16, 25, 163, 130, 73, 71, 0, 52, 133, 217, 108], [201, 173, 166, 60, 181, 116, 76, 0, 84, 20, 132, 69]]"
20241111_175928,8,1,July,heatmap,highest,6,School [6],113,113,10.5,Correct,"[[2, 112, 90, 152, 38, 33, 45, 0, 148, 227, 95, 16], [34, 121, 125, 37, 55, 227, 16, 0, 192, 14, 163, 13], [226, 93, 174, 70, 143, 113, 14, 0, 83, 233, 30, 65], [187, 107, 18, 108, 120, 181, 1, 0, 203, 190, 217, 79], [3, 108, 70, 169, 114, 132, 86, 0, 75, 34, 205, 2], [130, 21, 38, 189, 14, 117, 113, 0, 135, 8, 205, 73], [7, 161, 209, 122, 64, 132, 85, 0, 111, 174, 146, 30], [31, 212, 205, 137, 97, 205, 14, 0, 219, 177, 216, 24], [29, 139, 190, 2, 229, 230, 13, 0, 162, 149, 36, 19], [158, 220, 119, 233, 46, 224, 45, 0, 23, 222, 61, 7]]"
20241111_175928,8,2,December,heatmap,lowest,8,School [3],5,103,9.78,Wrong,"[[128, 115, 156, 221, 44, 16, 45, 0, 113, 184, 136, 99], [49, 84, 153, 90, 113, 236, 3, 0, 5, 213, 61, 67], [22, 214, 92, 100, 145, 74, 78, 0, 63, 142, 205, 5], [210, 6, 206, 164, 76, 130, 30, 0, 110, 182, 168, 46], [191, 95, 0, 186, 92, 117, 106, 0, 188, 11, 21, 102], [15, 222, 110, 188, 125, 84, 73, 0, 7, 230, 164, 85], [134, 189, 134, 30, 114, 50, 48, 0, 114, 186, 102, 96], [139, 40, 40, 233, 33, 163, 111, 0, 185, 6, 190, 103], [0, 164, 46, 232, 187, 43, 105, 0, 76, 9, 15, 79], [117, 194, 77, 148, 114, 86, 114, 0, 134, 51, 145, 90]]"
20241111_175928,8,3,October,heatmap,lowest,5,School [4],38,213,4.38,Wrong,"[[211, 139, 223, 167, 228, 207, 41, 0, 78, 58, 116, 14], [57, 118, 156, 174, 152, 72, 36, 0, 97, 76, 179, 89], [137, 198, 49, 60, 40, 233, 69, 0, 30, 169, 111, 115], [63, 24, 210, 9, 37, 155, 116, 0, 170, 38, 16, 103], [148, 71, 188, 155, 233, 22, 92, 0, 108, 213, 18, 14], [54, 102, 34, 193, 16, 103, 29, 0, 230, 137, 145, 48], [212, 218, 139, 143, 61, 222, 57, 0, 131, 143, 149, 17], [144, 24, 145, 49, 169, 155, 15, 0, 147, 139, 58, 85], [77, 23, 205, 91, 120, 105, 6, 0, 197, 156, 112, 59], [52, 120, 86, 184, 232, 95, 95, 0, 103, 86, 47, 114]]"
20241111_175928,8,4,September,heatmap,lowest,5,School [1],0,225,11.09,Wrong,"[[93, 31, 220, 30, 214, 147, 0, 0, 0, 54, 104, 94], [0, 196, 182, 199, 12, 98, 4, 0, 172, 93, 40, 63], [51, 21, 179, 107, 125, 225, 12, 0, 175, 121, 129, 104], [88, 234, 82, 159, 60, 72, 39, 0, 132, 146, 78, 20], [31, 119, 86, 151, 188, 144, 44, 0, 225, 205, 170, 17], [42, 185, 116, 145, 209, 172, 116, 0, 117, 38, 180, 16], [86, 107, 211, 194, 157, 100, 52, 0, 141, 224, 129, 118], [50, 66, 148, 156, 0, 202, 67, 0, 212, 205, 146, 20], [108, 234, 66, 81, 217, 66, 92, 0, 201, 109, 32, 29], [160, 143, 137, 35, 13, 8, 83, 0, 184, 181, 117, 51]]"
20241111_175928,8,5,December,heatmap,highest,3,School [3],102,102,10.77,Correct,"[[107, 60, 170, 25, 151, 64, 96, 0, 223, 39, 153, 20], [224, 56, 122, 140, 97, 191, 115, 0, 83, 137, 5, 68], [199, 108, 224, 76, 233, 160, 38, 0, 164, 79, 127, 102], [183, 43, 103, 233, 177, 218, 77, 0, 185, 236, 95, 7], [61, 173, 131, 103, 165, 18, 103, 0, 182, 198, 22, 22], [25, 69, 20, 20, 177, 21, 61, 0, 130, 40, 86, 82], [229, 91, 102, 166, 51, 99, 96, 0, 213, 89, 18, 44], [128, 14, 160, 52, 205, 137, 52, 0, 31, 111, 236, 35], [157, 64, 7, 155, 119, 215, 102, 0, 197, 159, 131, 99], [163, 129, 45, 128, 189, 175, 19, 0, 91, 60, 159, 84]]"
20241111_175928,8,6,February,heatmap,lowest,10,School [9],8,216,23.01,Wrong,"[[180, 211, 235, 182, 0, 153, 104, 0, 147, 139, 32, 112], [28, 191, 100, 152, 215, 199, 118, 0, 68, 179, 219, 44], [0, 157, 161, 130, 10, 26, 94, 0, 138, 222, 113, 6], [221, 122, 187, 3, 99, 19, 68, 0, 33, 50, 63, 27], [162, 72, 16, 86, 132, 163, 72, 0, 233, 41, 8, 31], [30, 27, 17, 61, 45, 44, 101, 0, 56, 193, 10, 26], [36, 39, 223, 25, 108, 126, 112, 0, 0, 38, 19, 45], [141, 147, 136, 24, 18, 207, 18, 0, 13, 208, 20, 100], [198, 8, 191, 233, 52, 55, 88, 0, 189, 218, 67, 40], [53, 216, 33, 17, 101, 211, 74, 0, 133, 88, 203, 15]]"
20241111_175928,8,7,November,heatmap,highest,1,School [1],205,205,7.63,Correct,"[[233, 40, 34, 94, 102, 118, 10, 0, 36, 226, 205, 44], [79, 25, 103, 181, 63, 30, 74, 0, 90, 98, 81, 108], [172, 106, 130, 160, 47, 154, 62, 0, 44, 198, 120, 107], [217, 109, 145, 58, 98, 93, 70, 0, 106, 208, 190, 0], [5, 101, 201, 155, 210, 191, 60, 0, 1, 105, 94, 39], [100, 1, 122, 117, 142, 90, 65, 0, 61, 90, 3, 88], [197, 209, 195, 61, 22, 45, 79, 0, 170, 204, 135, 5], [27, 32, 111, 122, 217, 228, 18, 0, 42, 227, 87, 72], [232, 66, 80, 148, 221, 124, 84, 0, 54, 110, 99, 69], [118, 108, 33, 133, 154, 202, 17, 0, 71, 174, 191, 53]]"
20241111_175928,8,8,September,heatmap,highest,5,School [5],234,234,6.91,Correct,"[[135, 111, 99, 145, 68, 202, 54, 0, 227, 113, 56, 70], [53, 90, 41, 124, 151, 107, 117, 0, 66, 175, 184, 102], [67, 89, 10, 38, 208, 132, 22, 0, 70, 120, 186, 99], [0, 152, 112, 69, 68, 1, 53, 0, 88, 157, 95, 27], [1, 226, 225, 22, 16, 3, 97, 0, 234, 75, 92, 4], [193, 190, 214, 193, 234, 167, 111, 0, 57, 192, 4, 4], [42, 109, 228, 9, 63, 202, 86, 0, 13, 224, 85, 103], [86, 132, 18, 105, 17, 78, 64, 0, 1, 193, 166, 16], [185, 188, 173, 95, 212, 124, 117, 0, 108, 140, 111, 8], [46, 13, 214, 104, 58, 161, 72, 0, 153, 163, 58, 74]]"
20241111_175928,8,9,June,heatmap,highest,2,School [2],223,223,8.69,Correct,"[[95, 227, 193, 112, 33, 208, 22, 0, 149, 92, 96, 84], [143, 186, 199, 45, 54, 223, 82, 0, 140, 6, 74, 77], [93, 201, 126, 9, 130, 216, 37, 0, 16, 195, 95, 97], [176, 79, 42, 181, 178, 30, 57, 0, 70, 69, 186, 58], [174, 165, 66, 27, 57, 118, 91, 0, 31, 124, 93, 70], [21, 63, 15, 28, 156, 3, 28, 0, 11, 125, 18, 13], [140, 43, 108, 48, 174, 195, 94, 0, 78, 231, 213, 117], [39, 9, 33, 54, 132, 150, 58, 0, 70, 233, 11, 86], [170, 142, 228, 169, 20, 181, 109, 0, 48, 128, 7, 51], [7, 94, 130, 71, 160, 206, 47, 0, 124, 219, 201, 114]]"
20241111_175928,8,10,October,heatmap,lowest,10,School [10],24,24,4.82,Correct,"[[152, 106, 11, 109, 104, 210, 102, 0, 98, 53, 37, 69], [1, 214, 4, 91, 152, 38, 107, 0, 98, 113, 133, 62], [181, 161, 138, 78, 151, 27, 25, 0, 56, 80, 169, 14], [40, 216, 75, 86, 178, 35, 67, 0, 228, 123, 95, 21], [154, 88, 133, 115, 23, 119, 108, 0, 115, 66, 39, 90], [67, 3, 155, 113, 44, 154, 93, 0, 160, 132, 44, 36], [157, 212, 215, 140, 203, 203, 50, 0, 174, 218, 60, 76], [108, 130, 166, 68, 41, 218, 107, 0, 41, 144, 5, 117], [62, 84, 110, 191, 101, 46, 27, 0, 53, 160, 217, 66], [75, 213, 53, 38, 34, 52, 87, 0, 144, 24, 225, 115]]"
20241111_175928,8,1,April,scatter,lowest,2,School [2],11,11,12.7,Correct,"[[13, 177, 13, 154, 87, 196, 38, 0, 233, 141, 226, 78], [63, 13, 127, 11, 71, 166, 99, 0, 173, 203, 47, 107], [181, 188, 161, 72, 166, 118, 94, 0, 83, 103, 215, 97], [96, 116, 208, 43, 198, 11, 53, 0, 112, 30, 76, 61], [162, 11, 59, 109, 77, 193, 103, 0, 32, 212, 24, 26], [80, 47, 109, 205, 26, 39, 23, 0, 161, 169, 29, 108], [232, 179, 71, 66, 81, 208, 88, 0, 136, 31, 7, 39], [186, 137, 224, 53, 27, 86, 46, 0, 33, 162, 138, 13], [95, 236, 157, 194, 174, 11, 94, 0, 169, 69, 7, 16], [114, 8, 108, 211, 125, 167, 71, 0, 115, 206, 29, 15]]"
20241111_175928,8,2,October,scatter,highest,3,School [3],236,236,7.4,Correct,"[[143, 193, 170, 167, 12, 103, 2, 0, 164, 177, 137, 103], [85, 197, 166, 56, 209, 153, 8, 0, 224, 101, 156, 71], [190, 204, 13, 221, 16, 14, 18, 0, 4, 236, 125, 76], [9, 2, 5, 15, 143, 58, 71, 0, 28, 37, 91, 85], [0, 199, 128, 159, 93, 70, 31, 0, 127, 66, 13, 1], [85, 84, 197, 43, 51, 103, 42, 0, 222, 76, 201, 113], [204, 189, 105, 110, 215, 169, 56, 0, 146, 181, 174, 91], [56, 94, 2, 217, 91, 129, 47, 0, 9, 19, 115, 79], [154, 171, 103, 209, 58, 197, 46, 0, 227, 193, 213, 111], [220, 104, 235, 39, 29, 143, 18, 0, 220, 81, 158, 1]]"
20241111_175928,8,3,August,scatter,highest,1,"School [1, 2, 3, 4, 5, 6, 7, 8, 9, 10]",0,0,14.81,Correct,"[[80, 54, 197, 64, 224, 105, 16, 0, 214, 178, 83, 64], [142, 210, 117, 6, 103, 40, 28, 0, 10, 172, 185, 47], [211, 66, 183, 217, 114, 139, 113, 0, 146, 153, 202, 20], [56, 215, 175, 63, 32, 86, 77, 0, 159, 86, 110, 57], [222, 90, 41, 116, 233, 110, 94, 0, 38, 36, 117, 57], [131, 136, 18, 43, 10, 155, 92, 0, 142, 183, 11, 32], [181, 65, 162, 45, 204, 114, 42, 0, 45, 223, 65, 55], [149, 198, 146, 136, 179, 135, 106, 0, 57, 36, 191, 19], [218, 8, 84, 46, 3, 89, 3, 0, 103, 0, 133, 91], [226, 139, 30, 175, 26, 169, 63, 0, 179, 78, 162, 78]]"
20241111_175928,8,4,November,scatter,highest,1,School [1],228,228,6.8,Correct,"[[42, 84, 135, 210, 148, 50, 32, 0, 23, 105, 228, 6], [92, 161, 33, 23, 101, 95, 118, 0, 6, 86, 119, 68], [226, 148, 8, 231, 85, 15, 110, 0, 220, 231, 170, 111], [11, 89, 64, 50, 172, 130, 48, 0, 199, 23, 158, 10], [52, 235, 194, 39, 220, 196, 22, 0, 139, 198, 186, 115], [121, 233, 146, 71, 175, 6, 11, 0, 211, 82, 160, 51], [190, 125, 136, 74, 7, 176, 97, 0, 187, 152, 217, 52], [15, 44, 63, 182, 158, 48, 108, 0, 104, 44, 218, 18], [113, 19, 167, 134, 213, 184, 64, 0, 159, 170, 113, 17], [185, 72, 117, 113, 131, 197, 64, 0, 38, 196, 127, 87]]"
20241111_175928,8,5,April,scatter,highest,6,School [6],229,229,8.31,Correct,"[[98, 101, 120, 72, 110, 130, 34, 0, 104, 157, 201, 115], [233, 53, 27, 192, 19, 55, 43, 0, 26, 132, 227, 28], [141, 39, 235, 1, 199, 197, 31, 0, 42, 87, 226, 26], [140, 21, 33, 128, 71, 22, 92, 0, 207, 33, 26, 0], [224, 66, 42, 211, 138, 47, 44, 0, 152, 58, 76, 6], [39, 126, 112, 229, 207, 211, 105, 0, 48, 218, 219, 0], [216, 184, 100, 79, 76, 63, 84, 0, 23, 79, 211, 81], [185, 192, 121, 42, 55, 79, 90, 0, 84, 64, 127, 35], [165, 162, 154, 92, 201, 225, 61, 0, 73, 233, 182, 40], [148, 149, 191, 63, 143, 191, 12, 0, 94, 106, 163, 81]]"
20241111_175928,8,6,March,scatter,lowest,8,School [7],38,200,22.47,Wrong,"[[24, 64, 193, 21, 192, 103, 110, 0, 64, 205, 225, 44], [181, 22, 112, 118, 213, 76, 12, 0, 142, 191, 73, 21], [177, 130, 210, 186, 169, 49, 10, 0, 158, 8, 201, 77], [164, 105, 128, 203, 228, 75, 116, 0, 144, 139, 197, 57], [193, 51, 214, 185, 95, 208, 65, 0, 87, 90, 231, 33], [142, 226, 211, 171, 174, 91, 72, 0, 174, 201, 218, 78], [24, 79, 38, 202, 7, 208, 89, 0, 102, 198, 112, 14], [32, 33, 200, 33, 13, 121, 28, 0, 113, 64, 85, 0], [129, 85, 120, 57, 154, 143, 40, 0, 70, 118, 100, 29], [145, 93, 139, 205, 207, 48, 67, 0, 218, 52, 180, 107]]"
20241111_175928,8,7,March,scatter,highest,3,School [3],207,207,12.69,Correct,"[[7, 154, 43, 26, 73, 232, 96, 0, 13, 185, 51, 104], [211, 182, 101, 52, 36, 136, 44, 0, 0, 27, 109, 35], [63, 25, 207, 40, 172, 6, 101, 0, 16, 207, 139, 57], [211, 105, 87, 106, 165, 41, 38, 0, 150, 24, 177, 56], [148, 76, 178, 36, 83, 109, 98, 0, 140, 21, 90, 92], [122, 95, 52, 49, 90, 187, 11, 0, 150, 152, 81, 85], [127, 103, 6, 149, 66, 206, 76, 0, 135, 155, 212, 41], [53, 163, 59, 101, 229, 113, 15, 0, 50, 163, 176, 83], [96, 122, 53, 27, 86, 143, 101, 0, 89, 91, 223, 32], [60, 12, 50, 1, 52, 166, 40, 0, 7, 88, 144, 51]]"
20241111_175928,8,8,November,scatter,highest,4,School [4],217,217,6.92,Correct,"[[93, 221, 186, 135, 115, 232, 100, 0, 230, 186, 13, 71], [158, 7, 219, 236, 152, 12, 24, 0, 162, 220, 128, 9], [182, 103, 39, 80, 188, 78, 107, 0, 27, 79, 42, 74], [165, 114, 236, 117, 13, 138, 17, 0, 66, 77, 217, 27], [14, 71, 111, 200, 91, 176, 80, 0, 234, 53, 105, 13], [122, 184, 205, 124, 41, 4, 18, 0, 164, 44, 135, 116], [106, 185, 108, 127, 170, 66, 30, 0, 49, 204, 86, 89], [183, 206, 131, 138, 81, 172, 18, 0, 85, 152, 14, 108], [141, 121, 191, 172, 51, 142, 40, 0, 95, 135, 101, 45], [158, 73, 137, 52, 99, 166, 116, 0, 108, 143, 62, 113]]"
20241111_175928,8,9,September,scatter,highest,10,School [10],184,184,9.39,Correct,"[[26, 131, 62, 231, 105, 122, 65, 0, 88, 40, 152, 2], [208, 18, 175, 137, 14, 198, 51, 0, 40, 80, 236, 87], [145, 142, 203, 9, 188, 80, 76, 0, 111, 91, 182, 52], [65, 112, 155, 213, 109, 135, 67, 0, 43, 37, 113, 6], [16, 83, 100, 20, 219, 117, 54, 0, 112, 85, 104, 104], [132, 132, 17, 116, 89, 201, 107, 0, 182, 231, 26, 77], [228, 71, 3, 213, 110, 23, 37, 0, 99, 51, 213, 40], [226, 82, 117, 61, 2, 114, 116, 0, 122, 208, 30, 6], [56, 231, 199, 230, 108, 218, 12, 0, 76, 57, 217, 73], [172, 100, 129, 0, 197, 133, 93, 0, 184, 163, 20, 89]]"
20241111_175928,8,10,July,scatter,highest,6,School [6],113,113,6.42,Correct,"[[164, 79, 201, 47, 117, 65, 1, 0, 25, 60, 162, 22], [41, 51, 133, 102, 85, 55, 82, 0, 190, 147, 144, 23], [21, 32, 147, 44, 71, 88, 45, 0, 80, 163, 140, 98], [222, 173, 46, 168, 183, 93, 8, 0, 55, 57, 189, 117], [211, 13, 223, 196, 55, 2, 41, 0, 52, 149, 95, 27], [107, 19, 24, 172, 190, 119, 113, 0, 57, 122, 107, 36], [6, 37, 130, 133, 169, 126, 81, 0, 72, 225, 127, 84], [224, 189, 86, 124, 1, 193, 80, 0, 38, 35, 193, 47], [42, 168, 131, 94, 181, 87, 45, 0, 56, 64, 202, 108], [17, 94, 119, 110, 69, 112, 48, 0, 116, 112, 0, 102]]"
